time; pose_x; pose_y; pose_heading;  gps_x; gps_y; speed_x; speed_y; acc_x; acc_y;
0.016; -2.9; -7.15386e-12; 0; -2.9; -1.11277e-11; -1.58006e-11; -6.35808e-14; -9.87629e-10; -0
0.032; -2.89789; -7.15488e-12; 0; -2.9; -1.11277e-11; 0.131833; -6.35808e-14; 8.23957; 0
0.048; -2.89689; -5.06133e-06; -0.00505263; -2.9; -1.11277e-11; 0.062607; -0.000316333; -4.32652; 0.0218605
0.064; -2.89469; -1.61914e-05; -0.00505263; -2.9; -1.11277e-11; 0.137675; -0.000695626; 4.69174; -0.0237059
0.08; -2.89245; -1.61914e-05; 0; -2.9; -1.11277e-11; 0.139751; -6.35809e-14; 0.129674; 0
0.096; -2.89019; -2.18986e-05; -0.00252632; -2.9; -1.11277e-11; 0.141195; -0.000356704; 0.0902538; -0.00022801
0.112; -2.88792; -3.62483e-05; -0.00631579; -2.9; -1.11277e-11; 0.142; -0.000896852; 0.0504418; -0.000318584
0.128; -2.88564; -4.48677e-05; -0.00378947; -2.9; -1.11277e-11; 0.14216; -0.000538716; 0.00992805; -3.76223e-05
0.144; -2.88338; -3.6278e-05; 0.00378947; -2.9; -1.11277e-11; 0.141669; 0.000536855; -0.0306923; -0.000116308
0.16; -2.88112; -3.05712e-05; 0.00252632; -2.9; -1.11277e-11; 0.141185; 0.000356679; -0.0303013; -7.65507e-05
0.176; -2.87887; -3.05712e-05; -1.47451e-17; -2.9; -1.11277e-11; 0.140715; -6.3583e-14; -0.0293835; 4.33264e-19
0.192; -2.87662; -3.3406e-05; -0.00126316; -2.9; -1.11277e-11; 0.140266; -0.000177179; -0.0280508; 3.54326e-05
0.208; -2.87439; -4.47115e-05; -0.00505263; -2.9; -1.11277e-11; 0.139845; -0.000706589; -0.0262597; 0.000132682
0.224; -2.87215; -3.90743e-05; 0.00252632; -2.9; -1.11277e-11; 0.139461; 0.000352323; -0.0240602; -6.07839e-05
0.24; -2.86993; -4.18859e-05; -0.00126316; -2.9; -1.11277e-11; 0.139118; -0.000175728; -0.0214866; 2.7141e-05
0.256; -2.86771; -4.74972e-05; -0.00252632; -2.9; -1.11277e-11; 0.13882; -0.000350703; -0.0185941; 4.69747e-05
0.272; -2.86549; -5.30985e-05; -0.00252632; -2.9; -1.11277e-11; 0.138573; -0.00035008; -0.015422; 3.8961e-05
0.288; -2.86328; -4.19115e-05; 0.00505263; -2.9; -1.11277e-11; 0.138379; 0.000699186; -0.0120194; -6.07299e-05
0.304; -2.86106; -4.47055e-05; -0.00126316; -2.9; -1.11277e-11; 0.138246; -0.000174627; -0.0084332; 1.06525e-05
0.32; -2.85885; -5.02905e-05; -0.00252632; -2.9; -1.11277e-11; 0.13817; -0.000349063; -0.00470901; 1.18965e-05
0.336; -2.85664; -4.74983e-05; 0.00126316; -2.9; -1.11277e-11; 0.138157; 0.000174514; -0.000879557; -1.11102e-06
0.352; -2.85443; -6.98433e-05; -0.0101053; -2.9; -1.11277e-11; 0.138197; -0.00139657; 0.00296391; -2.99522e-05
0.368; -2.85222; -0.000100592; -0.0138947; -2.9; -1.11277e-11; 0.1383; -0.00192176; 0.00680711; -9.45891e-05
0.384; -2.85; -0.000111787; -0.00505263; -2.9; -1.11277e-11; 0.138481; -0.000699698; 0.010587; -5.34926e-05
0.4; -2.84778; -0.000103376; 0.00378947; -2.9; -1.11277e-11; 0.138709; 0.000525639; 0.0142503; 5.40013e-05
0.416; -2.84556; -9.49491e-05; 0.00378947; -2.9; -1.11277e-11; 0.138993; 0.000526715; 0.017747; 6.7252e-05
0.432; -2.84333; -9.49491e-05; -1.17094e-17; -2.9; -1.11277e-11; 0.139331; -6.35822e-14; 0.0210288; -2.46234e-19
0.448; -2.8411; -0.00010342; -0.00378947; -2.9; -1.11277e-11; 0.139715; -0.000529448; 0.0240495; -9.11354e-05
0.464; -2.83885; -0.000106253; -0.00126316; -2.9; -1.11277e-11; 0.140144; -0.000177024; 0.0267673; -3.38113e-05
0.48; -2.8366; -0.000117617; -0.00505263; -2.9; -1.11277e-11; 0.140571; -0.000710257; 0.0267747; -0.000135284
0.496; -2.83435; -0.000109068; 0.00378947; -2.9; -1.11277e-11; 0.140995; 0.000534298; 0.0264526; 0.000100242
0.512; -2.83209; -0.000126215; -0.00757895; -2.9; -1.11277e-11; 0.141404; -0.00107171; 0.0257837; -0.000195417
0.528; -2.82982; -0.000123349; 0.00126316; -2.9; -1.11277e-11; 0.141805; 0.000179122; 0.0247944; 3.13193e-05
0.544; -2.82754; -0.000120476; 0.00126316; -2.9; -1.11277e-11; 0.142181; 0.000179597; 0.0234932; 2.96756e-05
0.56; -2.82526; -0.000131998; -0.00505263; -2.9; -1.11277e-11; 0.142529; -0.000720154; 0.0218988; -0.000110648
0.576; -2.82298; -0.000134885; -0.00126316; -2.9; -1.11277e-11; 0.142852; -0.000180444; 0.0200342; -2.53064e-05
0.592; -2.82069; -0.000123314; 0.00505263; -2.9; -1.11277e-11; 0.143137; 0.000723223; 0.0179241; 9.05644e-05
0.608; -2.81839; -0.00012911; -0.00252632; -2.9; -1.11277e-11; 0.143388; -0.000362243; 0.015598; -3.94056e-05
0.624; -2.81609; -0.000126208; 0.00126316; -2.9; -1.11277e-11; 0.143597; 0.000181386; 0.0130871; 1.65311e-05
0.64; -2.81379; -0.000126208; -1.43115e-17; -2.9; -1.11277e-11; 0.143764; -6.35831e-14; 0.0104255; -1.49205e-19
0.656; -2.81149; -0.000126208; -1.43115e-17; -2.9; -1.11277e-11; 0.143887; -6.35831e-14; 0.00764897; -1.09468e-19
0.672; -2.80919; -0.000126208; -1.43115e-17; -2.9; -1.11277e-11; 0.143963; -6.35832e-14; 0.00479467; -6.86187e-20
0.688; -2.80688; -0.000111657; 0.00631579; -2.9; -1.11277e-11; 0.143991; 0.000909428; 0.00190059; 1.20039e-05
0.704; -2.80458; -0.000108747; 0.00126316; -2.9; -1.11277e-11; 0.143978; 0.000181867; -0.000994809; -1.2566e-06
0.72; -2.80228; -0.000137832; -0.0126316; -2.9; -1.11277e-11; 0.143905; -0.00181784; -0.00385321; 4.86748e-05
0.736; -2.79998; -0.000146552; -0.00378947; -2.9; -1.11277e-11; 0.143809; -0.000544963; -0.00663708; 2.51512e-05
0.752; -2.79768; -0.000158166; -0.00505263; -2.9; -1.11277e-11; 0.143659; -0.000725863; -0.00931165; 4.70487e-05
0.768; -2.79538; -0.000184262; -0.0113684; -2.9; -1.11277e-11; 0.143462; -0.00163101; -0.0118498; 0.000134719
0.784; -2.79309; -0.000187157; -0.00126316; -2.9; -1.11277e-11; 0.143244; -0.00018094; -0.0142096; 1.7949e-05
0.8; -2.7908; -0.000175598; 0.00505263; -2.9; -1.11277e-11; 0.142981; 0.000722434; -0.0163537; -8.263e-05
0.816; -2.78852; -0.000192901; -0.00757895; -2.9; -1.11277e-11; 0.142686; -0.00108143; -0.0182449; 0.00013828
0.832; -2.78624; -0.00021592; -0.0101053; -2.9; -1.11277e-11; 0.142366; -0.00143869; -0.0198358; 0.000200453
0.848; -2.78397; -0.000207308; 0.00378947; -2.9; -1.11277e-11; 0.142034; 0.000538237; -0.0211237; -8.00482e-05
0.864; -2.7817; -0.000227352; -0.00884211; -2.9; -1.11277e-11; 0.141677; -0.00125275; -0.0220652; 0.000195108
0.88; -2.77944; -0.000213071; 0.00631579; -2.9; -1.11277e-11; 0.141317; 0.00089254; -0.0226424; -0.000143007
0.896; -2.77719; -0.00021592; -0.00126316; -2.9; -1.11277e-11; 0.140954; -0.000178047; -0.0228449; 2.88568e-05
0.912; -2.77494; -0.000238651; -0.0101053; -2.9; -1.11277e-11; 0.140584; -0.00142069; -0.0226641; 0.000229035
0.928; -2.77269; -0.000215977; 0.0101053; -2.9; -1.11277e-11; 0.140231; 0.00141712; -0.0221021; -0.000223355
0.944; -2.77046; -0.00022446; -0.00378947; -2.9; -1.11277e-11; 0.139898; -0.000530144; -0.0211639; 8.02004e-05
0.96; -2.76822; -0.000241386; -0.00757895; -2.9; -1.11277e-11; 0.139578; -0.00105787; -0.0198588; 0.000150512
0.976; -2.76599; -0.000244201; -0.00126316; -2.9; -1.11277e-11; 0.13929; -0.000175946; -0.0182066; 2.29979e-05
0.992; -2.76377; -0.000232961; 0.00505263; -2.9; -1.11277e-11; 0.139029; 0.000702467; -0.0162288; -8.19989e-05
1.008; -2.76155; -0.000224545; 0.00378947; -2.9; -1.11277e-11; 0.138806; 0.000526005; -0.0139549; -5.2882e-05
1.024; -2.8947; -4.2543e-06; -0.00757895; -2.89714; 1.24213e-08; 0.123595; -0.0010243; -0.0114177; 8.6536e-05
1.04; -2.89273; 6.82062e-06; 0.00631579; -2.89714; 1.24213e-08; 0.123458; 0.000692182; -0.00865588; -5.46694e-05
1.056; -2.89075; -9.54033e-06; -0.00757895; -2.89714; 1.24213e-08; 0.123365; -0.00102256; -0.00571056; 4.32809e-05
1.072; -2.88878; -9.71368e-07; 0.00505263; -2.89714; 1.24213e-08; 0.123326; 0.00053556; -0.00262697; -1.32732e-05
1.088; -2.88681; 5.10564e-06; 0.00378947; -2.89714; 1.24213e-08; 0.123335; 0.000379813; 0.000547642; 2.07529e-06
1.104; -2.88483; 1.11863e-05; 0.00378947; -2.89714; 1.24213e-08; 0.123395; 0.000380041; 0.00376393; 1.42634e-05
1.12; -2.88286; 1.47776e-05; 0.00252632; -2.89714; 1.24213e-08; 0.123507; 0.000224455; 0.00697159; 1.76125e-05
1.136; -2.88088; -1.16169e-05; -0.0126316; -2.89714; 1.24213e-08; 0.123658; -0.00164965; 0.0101192; -0.000127828
1.152; -2.8789; -2.30326e-05; -0.00505263; -2.89714; 1.24213e-08; 0.123878; -0.00071348; 0.0131589; -6.64879e-05
1.168; -2.87691; -1.6907e-05; 0.00378947; -2.89714; 1.24213e-08; 0.124136; 0.000382848; 0.01604; 6.07833e-05
1.184; -2.87492; -2.58527e-05; -0.00378947; -2.89714; 1.24213e-08; 0.124435; -0.000559109; 0.018716; -7.09241e-05
1.2; -2.87292; -3.4819e-05; -0.00378947; -2.89714; 1.24213e-08; 0.124773; -0.000560391; 0.0211431; -8.01217e-05
1.216; -2.87092; -2.35737e-05; 0.00631579; -2.89714; 1.24213e-08; 0.125145; 0.000702834; 0.0232805; 0.000147037
1.232; -2.86891; -1.22878e-05; 0.00631579; -2.89714; 1.24213e-08; 0.125546; 0.000705369; 0.0250921; 0.000158479
1.248; -2.8669; -3.50487e-06; 0.00505263; -2.89714; 1.24213e-08; 0.125972; 0.00054893; 0.0265481; 0.000134139
1.264; -2.86487; -4.90589e-06; -1.9082e-17; -2.89714; 1.24213e-08; 0.126415; -8.75638e-05; 0.0276087; -5.26827e-19
1.28; -2.86284; -6.30692e-06; -1.9082e-17; -2.89714; 1.24213e-08; 0.126854; -8.75638e-05; 0.027438; -5.23572e-19
1.296; -2.86081; -2.563e-06; 0.00252632; -2.89714; 1.24213e-08; 0.127284; 0.000233995; 0.0268667; 6.78739e-05
1.312; -2.85877; -3.96402e-06; -2.29851e-17; -2.89714; 1.24213e-08; 0.127698; -8.75638e-05; 0.0259037; -5.95399e-19
1.328; -2.85672; -2.08976e-05; -0.00757895; -2.89714; 1.24213e-08; 0.128087; -0.00105835; 0.0245741; -0.000186249
1.344; -2.85466; -2.22986e-05; -2.68882e-17; -2.89714; 1.24213e-08; 0.128458; -8.75638e-05; 0.0229203; -6.16285e-19
1.36; -2.8526; -1.84937e-05; 0.00252632; -2.89714; 1.24213e-08; 0.128793; 0.000237808; 0.0209286; 5.28725e-05
1.376; -2.85053; -9.45871e-06; 0.00505263; -2.89714; 1.24213e-08; 0.129091; 0.000564687; 0.0186735; 9.43509e-05
1.392; -2.84846; -1.3474e-05; -0.00126316; -2.89714; 1.24213e-08; 0.12935; -0.000250954; 0.0161805; -2.04385e-05
1.408; -2.84639; -4.40059e-06; 0.00505263; -2.89714; 1.24213e-08; 0.129565; 0.000567086; 0.0134898; 6.81598e-05
1.424; -2.84432; 4.68655e-06; 0.00505263; -2.89714; 1.24213e-08; 0.129736; 0.000567947; 0.0106456; 5.37887e-05
1.44; -2.84224; 3.21546e-05; 0.0138947; -2.89714; 1.24213e-08; 0.129849; 0.00171676; 0.00769204; 0.000106886
1.456; -2.84016; 4.65098e-05; 0.00757895; -2.89714; 1.24213e-08; 0.129932; 0.000897198; 0.00467736; 3.54501e-05
1.472; -2.83808; 5.03619e-05; 0.00252632; -2.89714; 1.24213e-08; 0.129961; 0.000240759; 0.00164651; 4.15962e-06
1.488; -2.836; 5.42132e-05; 0.00252632; -2.89714; 1.24213e-08; 0.129939; 0.000240704; -0.0013538; -3.42012e-06
1.504; -2.83392; 5.01874e-05; -0.00126316; -2.89714; 1.24213e-08; 0.129871; -0.000251611; -0.00427811; 5.40393e-06
1.52; -2.83185; 6.45211e-05; 0.00757895; -2.89714; 1.24213e-08; 0.129755; 0.000895855; -0.00708255; -5.36793e-05
1.536; -2.82977; 6.83587e-05; 0.00252632; -2.89714; 1.24213e-08; 0.129602; 0.000239852; -0.00972634; -2.45719e-05
1.552; -2.8277; 8.26499e-05; 0.00757895; -2.89714; 1.24213e-08; 0.129404; 0.0008932; -0.0121702; -9.22388e-05
1.568; -2.82564; 7.60274e-05; -0.00252632; -2.89714; 1.24213e-08; 0.129177; -0.000413905; -0.0143802; 3.63289e-05
1.584; -2.82357; 5.89939e-05; -0.00757895; -2.89714; 1.24213e-08; 0.128912; -0.0010646; -0.0163239; 0.000123721
1.6; -2.82152; 6.27921e-05; 0.00252632; -2.89714; 1.24213e-08; 0.128628; 0.000237392; -0.0179765; -4.54143e-05
1.616; -2.81946; 5.62043e-05; -0.00252632; -2.89714; 1.24213e-08; 0.128319; -0.000411738; -0.0193146; 4.8795e-05
1.632; -2.81741; 5.9977e-05; 0.00252632; -2.89714; 1.24213e-08; 0.127994; 0.00023579; -0.020322; -5.134e-05
1.648; -2.81537; 7.66361e-05; 0.00884211; -2.89714; 1.24213e-08; 0.127654; 0.00104119; -0.0209864; -0.000185569
1.664; -2.81334; 5.46502e-05; -0.0101053; -2.89714; 1.24213e-08; 0.12731; -0.00137411; -0.0213029; 0.000215279
1.68; -2.8113; 4.04179e-05; -0.00631579; -2.89714; 1.24213e-08; 0.126974; -0.000889518; -0.0212714; 0.000134347
1.696; -2.80928; 4.9255e-05; 0.00505263; -2.89714; 1.24213e-08; 0.126642; 0.000552314; -0.0208951; -0.000105576
1.712; -2.80726; 3.50891e-05; -0.00631579; -2.89714; 1.24213e-08; 0.126317; -0.000885366; -0.0201846; 0.000127483
1.728; -2.80524; 3.11413e-05; -0.00126316; -2.89714; 1.24213e-08; 0.126013; -0.000246738; -0.0191559; 2.41969e-05
1.744; -2.80323; 3.99044e-05; 0.00505263; -2.89714; 1.24213e-08; 0.125727; 0.000547693; -0.0178259; -9.00684e-05
1.76; -2.80122; 3.85034e-05; -2.42861e-17; -2.89714; 1.24213e-08; 0.125468; -8.75638e-05; -0.0162327; 3.9423e-19
1.776; -2.79922; 3.71023e-05; -2.42861e-17; -2.89714; 1.24213e-08; 0.125238; -8.75638e-05; -0.0143946; 3.49589e-19
1.792; -2.79722; 1.80116e-05; -0.00884211; -2.89714; 1.24213e-08; 0.125035; -0.00119317; -0.0123403; 0.000109117
1.808; -2.79522; 9.03902e-06; -0.00378947; -2.89714; 1.24213e-08; 0.124878; -0.000560788; -0.0100977; 3.82653e-05
1.824; -2.79322; 2.02449e-05; 0.00631579; -2.89714; 1.24213e-08; 0.124754; 0.000700366; -0.00769092; -4.85749e-05
1.84; -2.79123; 1.88439e-05; -2.86229e-17; -2.89714; 1.24213e-08; 0.124674; -8.75638e-05; -0.00513399; 1.4695e-19
1.856; -2.78923; 1.49239e-05; -0.00126316; -2.89714; 1.24213e-08; 0.124634; -0.000244996; -0.00249944; 3.15718e-06
1.872; -2.78724; 1.35229e-05; -2.86229e-17; -2.89714; 1.24213e-08; 0.124637; -8.75638e-05; 0.000216911; -6.20864e-21
1.888; -2.78524; 1.71618e-05; 0.00252632; -2.89714; 1.24213e-08; 0.124685; 0.000227429; 0.00296706; 7.49575e-06
1.904; -2.78325; 1.82825e-05; 0.00126316; -2.89714; 1.24213e-08; 0.124776; 7.00484e-05; 0.00571449; 7.21831e-06
1.92; -2.78125; 1.68815e-05; -2.88398e-17; -2.89714; 1.24213e-08; 0.124911; -8.75638e-05; 0.00842221; -2.42895e-19
1.936; -2.77925; 2.05367e-05; 0.00252632; -2.89714; 1.24213e-08; 0.125088; 0.000228448; 0.0110533; 2.79243e-05
1.952; -2.77724; 1.40707e-05; -0.00252632; -2.89714; 1.24213e-08; 0.125304; -0.000404123; 0.0135717; -3.42864e-05
1.968; -2.77523; 7.59443e-06; -0.00252632; -2.89714; 1.24213e-08; 0.125559; -0.000404768; 0.0159421; -4.02749e-05
1.984; -2.77322; 6.19341e-06; -2.81893e-17; -2.89714; 1.24213e-08; 0.12585; -8.75638e-05; 0.0181312; -5.11106e-19
2; -2.7712; -1.30573e-05; -0.00884211; -2.89714; 1.24213e-08; 0.126166; -0.00120317; 0.0201069; -0.000177792
2.016; -2.76918; -2.46866e-05; -0.00505263; -2.89714; 1.24213e-08; 0.126519; -0.000726826; 0.0218424; -0.000110363
2.032; -2.77049; 1.75489e-06; 0.00884211; -2.77054; 1.89503e-06; 0.12617; 0.00103657; 0.0233098; 0.000206113
2.048; -2.76846; -1.48578e-05; -0.00757895; -2.77054; 1.89503e-06; 0.126562; -0.00103829; 0.0244887; -0.000185602
2.064; -2.76643; -2.89535e-05; -0.00631579; -2.77054; 1.89503e-06; 0.126969; -0.000880984; 0.0253597; -0.000160169
2.08; -2.76439; -3.53676e-05; -0.00252632; -2.77054; 1.89503e-06; 0.127386; -0.000400881; 0.0259089; -6.54541e-05
2.096; -2.76235; -2.37177e-05; 0.00631579; -2.77054; 1.89503e-06; 0.127802; 0.000728118; 0.0261248; 0.000165001
2.112; -2.7603; -2.49827e-05; -1.73472e-17; -2.77054; 1.89503e-06; 0.12822; -7.90638e-05; 0.0260037; -4.51093e-19
2.128; -2.75824; -8.05031e-06; 0.00884211; -2.77054; 1.89503e-06; 0.128625; 0.00105828; 0.0255421; 0.000225852
2.144; -2.75617; -9.31533e-06; -1.38778e-17; -2.77054; 1.89503e-06; 0.129025; -7.90638e-05; 0.0247469; -3.43433e-19
2.16; -2.7541; 5.11136e-06; 0.00757895; -2.77054; 1.89503e-06; 0.1294; 0.000901668; 0.0236228; 0.000179039
2.176; -2.75203; 9.09129e-06; 0.00252632; -2.77054; 1.89503e-06; 0.129758; 0.000248746; 0.0221853; 5.60471e-05
2.192; -2.74995; 2.5681e-06; -0.00252632; -2.77054; 1.89503e-06; 0.130085; -0.0004077; 0.0204495; -5.1662e-05
2.208; -2.74786; -1.18721e-05; -0.00631579; -2.77054; 1.89503e-06; 0.130377; -0.000902511; 0.0184369; -0.000116445
2.224; -2.74577; -1.84176e-05; -0.00252632; -2.77054; 1.89503e-06; 0.130638; -0.000409099; 0.0161736; -4.08596e-05
2.24; -2.74368; -1.43933e-05; 0.00252632; -2.77054; 1.89503e-06; 0.130858; 0.000251525; 0.0136903; 3.4586e-05
2.256; -2.74158; -1.03617e-05; 0.00252632; -2.77054; 1.89503e-06; 0.131034; 0.00025197; 0.011007; 2.78072e-05
2.272; -2.73948; -1.16268e-05; -2.21177e-17; -2.77054; 1.89503e-06; 0.131165; -7.90638e-05; 0.00816549; -1.80602e-19
2.288; -2.73738; 5.67618e-06; 0.00884211; -2.77054; 1.89503e-06; 0.131244; 0.00108143; 0.00520494; 4.60238e-05
2.304; -2.73528; -6.20196e-06; -0.00505263; -2.77054; 1.89503e-06; 0.131281; -0.000742384; 0.00217265; -1.09777e-05
2.32; -2.73318; -7.46698e-06; -1.47451e-17; -2.77054; 1.89503e-06; 0.131269; -7.90638e-05; -0.000880361; 1.29811e-20
2.336; -2.73108; -8.732e-06; -1.47451e-17; -2.77054; 1.89503e-06; 0.131207; -7.90638e-05; -0.00388587; 5.72978e-20
2.352; -2.72898; -2.0484e-06; 0.00378947; -2.77054; 1.89503e-06; 0.131097; 0.000417725; -0.00683309; -2.58939e-05
2.368; -2.72689; -5.95985e-06; -0.00126316; -2.77054; 1.89503e-06; 0.130943; -0.000244465; -0.00963624; 1.21721e-05
2.384; -2.7248; -9.86733e-06; -0.00126316; -2.77054; 1.89503e-06; 0.130747; -0.000244218; -0.0122609; 1.54875e-05
2.4; -2.72271; -8.49463e-06; 0.00126316; -2.77054; 1.89503e-06; 0.130512; 8.57938e-05; -0.014664; -1.8523e-05
2.416; -2.72062; -2.02887e-05; -0.00505263; -2.77054; 1.89503e-06; 0.130241; -0.000737132; -0.0168059; 8.49149e-05
2.432; -2.71855; -2.15538e-05; -1.82146e-17; -2.77054; 1.89503e-06; 0.129945; -7.90638e-05; -0.0186522; 3.39741e-19
2.448; -2.71647; -2.28188e-05; -1.82146e-17; -2.77054; 1.89503e-06; 0.129622; -7.90638e-05; -0.0201719; 3.67423e-19
2.464; -2.7144; -2.40838e-05; -1.82146e-17; -2.77054; 1.89503e-06; 0.129281; -7.90638e-05; -0.0213405; 3.88709e-19
2.48; -2.71234; -3.57715e-05; -0.00505263; -2.77054; 1.89503e-06; 0.128924; -0.000730478; -0.0221387; 0.000111859
2.496; -2.71028; -4.22332e-05; -0.00252632; -2.77054; 1.89503e-06; 0.128565; -0.000403861; -0.0225541; 5.69789e-05
2.512; -2.70823; -5.64535e-05; -0.00631579; -2.77054; 1.89503e-06; 0.128201; -0.000888769; -0.0225788; 0.000142605
2.528; -2.70619; -6.28863e-05; -0.00252632; -2.77054; 1.89503e-06; 0.127848; -0.00040205; -0.0222138; 5.61192e-05
2.544; -2.70415; -5.12666e-05; 0.00631579; -2.77054; 1.89503e-06; 0.127504; 0.000726231; -0.0214632; -0.000135559
2.56; -2.70211; -5.5102e-05; -0.00126316; -2.77054; 1.89503e-06; 0.12718; -0.000239712; -0.0203406; 2.56934e-05
2.576; -2.70008; -5.6367e-05; -2.23346e-17; -2.77054; 1.89503e-06; 0.126878; -7.90638e-05; -0.0188629; 4.21294e-19
2.592; -2.69806; -4.7397e-05; 0.00505263; -2.77054; 1.89503e-06; 0.126604; 0.000560625; -0.017054; -8.61681e-05
2.608; -2.69603; -5.1216e-05; -0.00126316; -2.77054; 1.89503e-06; 0.126366; -0.000238684; -0.0149436; 1.88761e-05
2.624; -2.69402; -4.73813e-05; 0.00252632; -2.77054; 1.89503e-06; 0.126165; 0.000239669; -0.0125651; -3.17435e-05
2.64; -2.692; -5.1193e-05; -0.00126316; -2.77054; 1.89503e-06; 0.126006; -0.000238229; -0.00995719; 1.25775e-05
2.656; -2.68999; -5.50023e-05; -0.00126316; -2.77054; 1.89503e-06; 0.125891; -0.000238084; -0.00716189; 9.04661e-06
2.672; -2.68797; -7.15249e-05; -0.00757895; -2.77054; 1.89503e-06; 0.12582; -0.00103266; -0.00422437; 3.20169e-05
2.688; -2.68596; -6.26197e-05; 0.00505263; -2.77054; 1.89503e-06; 0.125804; 0.000556579; -0.0011926; -6.02582e-06
2.704; -2.68395; -7.15142e-05; -0.00378947; -2.77054; 1.89503e-06; 0.125834; -0.00055591; 0.00188439; -7.14087e-06
2.72; -2.68193; -8.55031e-05; -0.00631579; -2.77054; 1.89503e-06; 0.125911; -0.000874304; 0.00495624; -3.1303e-05
2.736; -2.67991; -6.63894e-05; 0.0101053; -2.77054; 1.89503e-06; 0.126036; 0.0011946; 0.00797243; 8.05662e-05
2.752; -2.6779; -7.53071e-05; -0.00378947; -2.77054; 1.89503e-06; 0.126215; -0.000557354; 0.0108859; -4.12522e-05
2.768; -2.67587; -8.67933e-05; -0.00505263; -2.77054; 1.89503e-06; 0.126432; -0.000717885; 0.0136342; -6.88894e-05
2.784; -2.67385; -9.31793e-05; -0.00252632; -2.77054; 1.89503e-06; 0.126692; -0.00039913; 0.0161858; -4.08905e-05
2.8; -2.67181; -9.70109e-05; -0.00126316; -2.77054; 1.89503e-06; 0.126989; -0.000239471; 0.0185013; -2.33701e-05
2.816; -2.66978; -9.31296e-05; 0.00252632; -2.77054; 1.89503e-06; 0.127318; 0.000242581; 0.0205519; 5.19208e-05
2.832; -2.66773; -8.66535e-05; 0.00378947; -2.77054; 1.89503e-06; 0.127674; 0.000404757; 0.0223179; 8.45734e-05
2.848; -2.66568; -6.20384e-05; 0.0126316; -2.77054; 1.89503e-06; 0.128046; 0.00153844; 0.0237863; 0.000300474
2.864; -2.66363; -7.888e-05; -0.00757895; -2.77054; 1.89503e-06; 0.12845; -0.0010526; 0.0249124; -0.000188814
2.88; -2.66157; -8.0145e-05; -1.82146e-17; -2.77054; 1.89503e-06; 0.128866; -7.90638e-05; 0.025715; -4.68388e-19
2.896; -2.6595; -9.44744e-05; -0.00631579; -2.77054; 1.89503e-06; 0.129281; -0.00089559; 0.0261743; -0.000165314
2.912; -2.65742; -9.3118e-05; 0.00126316; -2.77054; 1.89503e-06; 0.129705; 8.47742e-05; 0.0262899; 3.32083e-05
2.928; -2.65534; -0.000102273; -0.00378947; -2.77054; 1.89503e-06; 0.130121; -0.000572156; 0.0260619; -9.87612e-05
2.944; -2.65325; -9.03472e-05; 0.00631579; -2.77054; 1.89503e-06; 0.130528; 0.000745332; 0.0254971; 0.000161037
2.96; -2.65116; -8.36741e-05; 0.00378947; -2.77054; 1.89503e-06; 0.130923; 0.000417068; 0.0246074; 9.32495e-05
2.976; -2.64906; -7.16712e-05; 0.00631579; -2.77054; 1.89503e-06; 0.131296; 0.000750184; 0.0234065; 0.000147832
2.992; -2.64695; -5.69722e-05; 0.00757895; -2.77054; 1.89503e-06; 0.131646; 0.000918689; 0.0219144; 0.000166091
3.008; -2.64484; -5.29028e-05; 0.00252632; -2.77054; 1.89503e-06; 0.131971; 0.000254337; 0.0201546; 5.09169e-05
3.024; -2.64311; -5.19789e-05; 0.00126316; -2.77054; 1.89503e-06; 0.108302; 5.77383e-05; -1.47936; -0.00186866
3.04; -2.6439; 3.50944e-06; 0.0202105; -2.64393; 3.75188e-06; 0.107442; 0.00211064; -0.0135313; -0.000273511
3.056; -2.64218; 7.8771e-05; 0.0442105; -2.64393; 3.75188e-06; 0.10771; 0.00470385; 0.0218215; 0.000965367
3.072; -2.64044; 0.000163458; 0.0492632; -2.64393; 3.75188e-06; 0.108596; 0.00529294; 0.0569729; 0.00280894
3.088; -2.63869; 0.000284152; 0.0694737; -2.64393; 3.75188e-06; 0.109284; 0.00754335; 0.0510562; 0.00355278
3.104; -2.63693; 0.000425757; 0.0808421; -2.64393; 3.75188e-06; 0.109995; 0.00885032; 0.0502139; 0.00406826
3.12; -2.63517; 0.000586012; 0.0909474; -2.64393; 3.75188e-06; 0.110498; 0.0100159; 0.0373857; 0.00340953
3.136; -2.63339; 0.000758157; 0.0972632; -2.64393; 3.75188e-06; 0.110898; 0.0107591; 0.0291225; 0.00284151
3.152; -2.63161; 0.00096227; 0.114947; -2.64393; 3.75188e-06; 0.111026; 0.0127571; 0.020934; 0.00241697
3.168; -2.62984; 0.00120268; 0.135158; -2.64393; 3.75188e-06; 0.110945; 0.0150254; 0.0124903; 0.00169852
3.184; -2.62806; 0.00143875; 0.132632; -2.64393; 3.75188e-06; 0.111054; 0.0147546; 0.00447444; 0.000596957
3.2; -2.62629; 0.00171947; 0.157895; -2.64393; 3.75188e-06; 0.110584; 0.0175452; -0.00391104; -0.000622717
3.216; -2.62453; 0.00201973; 0.169263; -2.64393; 3.75188e-06; 0.110169; 0.0187657; -0.0130167; -0.00222454
3.232; -2.62278; 0.00233675; 0.179368; -2.64393; 3.75188e-06; 0.10962; 0.0198139; -0.0220753; -0.00400263
3.248; -2.62103; 0.00266599; 0.186947; -2.64393; 3.75188e-06; 0.109116; 0.0205778; -0.0219082; -0.00414407
3.264; -2.6193; 0.00302712; 0.205895; -2.64393; 3.75188e-06; 0.108366; 0.0225703; -0.021317; -0.00445216
3.28; -2.61757; 0.00338713; 0.205895; -2.64393; 3.75188e-06; 0.108033; 0.0225006; -0.0208349; -0.00435147
3.296; -2.61585; 0.00378947; 0.231158; -2.64393; 3.75188e-06; 0.107107; 0.0251465; -0.0201572; -0.0047443
3.312; -2.61415; 0.00421004; 0.242526; -2.64393; 3.75188e-06; 0.106503; 0.0262854; -0.0194799; -0.00481925
3.328; -2.61246; 0.00465298; 0.256421; -2.64393; 3.75188e-06; 0.105827; 0.027684; -0.0187424; -0.00491414
3.344; -2.61077; 0.00511388; 0.267789; -2.64393; 3.75188e-06; 0.105218; 0.0288063; -0.0179838; -0.00493438
3.36; -2.6091; 0.00559474; 0.280421; -2.64393; 3.75188e-06; 0.104571; 0.0300538; -0.0172; -0.00495377
3.376; -2.60744; 0.00608702; 0.288; -2.64393; 3.75188e-06; 0.104077; 0.0307676; -0.0164368; -0.00486917
3.392; -2.60578; 0.00661158; 0.308211; -2.64393; 3.75188e-06; 0.103184; 0.032785; -0.0156218; -0.00497328
3.408; -2.60414; 0.0071474; 0.315789; -2.64393; 3.75188e-06; 0.102694; 0.0334882; -0.0148935; -0.00486606
3.424; -2.60251; 0.00770886; 0.332211; -2.64393; 3.75188e-06; 0.101904; 0.0350918; -0.0141602; -0.00488523
3.44; -2.60089; 0.00829578; 0.348632; -2.64393; 3.75188e-06; 0.101098; 0.036682; -0.0134782; -0.00489902
3.456; -2.59929; 0.00890588; 0.363789; -2.64393; 3.75188e-06; 0.100325; 0.0381318; -0.0128655; -0.00489834
3.472; -2.59769; 0.00952893; 0.372632; -2.64393; 3.75188e-06; 0.0997859; 0.0389401; -0.0123573; -0.00483039
3.488; -2.59611; 0.0101749; 0.387789; -2.64393; 3.75188e-06; 0.0989938; 0.0403703; -0.0119015; -0.00486144
3.504; -2.59453; 0.0108355; 0.397895; -2.64393; 3.75188e-06; 0.0983958; 0.0412908; -0.0115609; -0.00485921
3.52; -2.59297; 0.0115187; 0.413053; -2.64393; 3.75188e-06; 0.097578; 0.0426983; -0.0112923; -0.00494901
3.536; -2.59142; 0.0122045; 0.415579; -2.64393; 3.75188e-06; 0.0972908; 0.0428657; -0.011187; -0.00493662
3.552; -2.58988; 0.0129301; 0.442105; -2.64393; 3.75188e-06; 0.0959426; 0.0453473; -0.0110639; -0.00523714
3.568; -2.58836; 0.0136774; 0.457263; -2.64393; 3.75188e-06; 0.0950667; 0.0467089; -0.0110993; -0.00546134
3.584; -2.58685; 0.0144386; 0.467368; -2.64393; 3.75188e-06; 0.0944096; 0.0475763; -0.0112629; -0.00568395
3.6; -2.58534; 0.015206; 0.472421; -2.64393; 3.75188e-06; 0.0939831; 0.0479582; -0.0115548; -0.00590466
3.616; -2.58386; 0.0159963; 0.488842; -2.64393; 3.75188e-06; 0.092993; 0.0493939; -0.0118715; -0.00631445
3.632; -2.58238; 0.0168036; 0.501474; -2.64393; 3.75188e-06; 0.092165; 0.0504568; -0.0122942; -0.00673991
3.648; -2.58091; 0.0176091; 0.501474; -2.64393; 3.75188e-06; 0.0919589; 0.0503438; -0.0128815; -0.00706188
3.664; -2.57946; 0.0184459; 0.524211; -2.64393; 3.75188e-06; 0.0905766; 0.0522978; -0.0133714; -0.00773092
3.68; -2.57802; 0.0192933; 0.533053; -2.64393; 3.75188e-06; 0.0898864; 0.0529643; -0.0140163; -0.00826998
3.696; -2.57661; 0.0201655; 0.552; -2.64393; 3.75188e-06; 0.088633; 0.0545138; -0.0146139; -0.00900013
3.712; -2.5752; 0.0210495; 0.562105; -2.64393; 3.75188e-06; 0.0878326; 0.0552523; -0.0153126; -0.00964517
3.728; -2.57381; 0.0219504; 0.576; -2.64393; 3.75188e-06; 0.0868007; 0.0563012; -0.015985; -0.0103817
3.744; -2.57244; 0.0228745; 0.594947; -2.64393; 3.75188e-06; 0.0854529; 0.057756; -0.0165938; -0.0112297
3.76; -2.57109; 0.0238043; 0.601263; -2.64393; 3.75188e-06; 0.0848219; 0.0581131; -0.0165334; -0.0113418
3.776; -2.56975; 0.0247533; 0.617684; -2.64393; 3.75188e-06; 0.0835949; 0.0593124; -0.016333; -0.0116033
3.792; -2.56843; 0.0257144; 0.629053; -2.64393; 3.75188e-06; 0.0826562; 0.0600705; -0.0161846; -0.011777
3.808; -2.56712; 0.0266874; 0.640421; -2.64393; 3.75188e-06; 0.0817117; 0.0608152; -0.0160221; -0.0119396
3.824; -2.56583; 0.0276754; 0.654316; -2.64393; 3.75188e-06; 0.0806058; 0.0617506; -0.0158128; -0.012129
3.84; -2.56456; 0.0286845; 0.673263; -2.64393; 3.75188e-06; 0.079173; 0.0630686; -0.0155221; -0.0123801
3.856; -2.56331; 0.0296984; 0.679579; -2.64393; 3.75188e-06; 0.0785272; 0.0633687; -0.0153666; -0.0124157
3.872; -2.56207; 0.0307234; 0.690947; -2.64393; 3.75188e-06; 0.0775598; 0.0640572; -0.0151271; -0.0125091
3.888; -2.56083; 0.0317529; 0.697263; -2.64393; 3.75188e-06; 0.0769148; 0.0643457; -0.0149283; -0.0125043
3.904; -2.55962; 0.0327916; 0.707368; -2.64393; 3.75188e-06; 0.0760261; 0.0649191; -0.0146588; -0.0125328
3.92; -2.55843; 0.0338608; 0.735158; -2.64393; 3.75188e-06; 0.0739955; 0.066828; -0.0123372; -0.0111559
3.936; -2.55726; 0.0349358; 0.742737; -2.64393; 3.75188e-06; 0.0732682; 0.0671861; -0.013669; -0.0125497
3.952; -2.55611; 0.0360267; 0.759158; -2.64393; 3.75188e-06; 0.0719443; 0.0681801; -0.0131741; -0.0125003
3.968; -2.55497; 0.0371174; 0.761684; -2.64393; 3.75188e-06; 0.0715665; 0.0681658; -0.0128348; -0.0122401
3.984; -2.55384; 0.0382236; 0.778105; -2.64393; 3.75188e-06; 0.0702406; 0.0691376; -0.0123108; -0.0121326
4; -2.55273; 0.0393394; 0.789474; -2.64393; 3.75188e-06; 0.0692606; 0.0697407; -0.0118389; -0.0119358
4.016; -2.55165; 0.040473; 0.808421; -2.64393; 3.75188e-06; 0.0677465; 0.0708516; -0.0112716; -0.011803
4.032; -2.55058; 0.0416146; 0.818526; -2.64393; 3.75188e-06; 0.0668542; 0.0713478; -0.0108078; -0.0115487
4.048; -2.51905; 0.000505148; 0.837474; -2.51878; 0.000142657; 0.0729718; 0.0618207; -0.0102453; -0.011372
4.064; -2.51788; 0.00149294; 0.838737; -2.51878; 0.000142657; 0.0727354; 0.0617368; -0.00988888; -0.0110044
4.08; -2.51674; 0.00250127; 0.858947; -2.51878; 0.000142657; 0.0713236; 0.063021; -0.00933354; -0.0108184
4.096; -2.51562; 0.00352266; 0.872842; -2.51878; 0.000142657; 0.0702992; 0.0638368; -0.00886424; -0.0105678
4.112; -2.51452; 0.00456531; 0.894316; -2.51878; 0.000142657; 0.0687789; 0.0651654; -0.00833687; -0.010384
4.128; -2.51342; 0.00560954; 0.898105; -2.51878; 0.000142657; 0.0684032; 0.0652646; -0.00801601; -0.0100622
4.144; -2.51235; 0.00666908; 0.914526; -2.51878; 0.000142657; 0.0672008; 0.0662212; -0.00759332; -0.0098596
4.16; -2.51128; 0.00773562; 0.923368; -2.51878; 0.000142657; 0.0664963; 0.0666589; -0.00727524; -0.00962137
4.176; -2.51023; 0.00880646; 0.929684; -2.51878; 0.000142657; 0.0659618; 0.0669272; -0.00701186; -0.00939583
4.192; -2.50918; 0.00988422; 0.938526; -2.51878; 0.000142657; 0.0652593; 0.0673602; -0.00675761; -0.00922418
4.208; -2.50817; 0.0109857; 0.963789; -2.51878; 0.000142657; 0.0634347; 0.06884; -0.00638849; -0.00919905
4.224; -2.50717; 0.0121; 0.978947; -2.51878; 0.000142657; 0.0622856; 0.0696472; -0.00615002; -0.00914859
4.24; -2.50618; 0.0132183; 0.985263; -2.51878; 0.000142657; 0.061748; 0.0698938; -0.00602913; -0.00909226
4.256; -2.50521; 0.0143491; 1.00042; -2.51878; 0.000142657; 0.0605877; 0.0706754; -0.00586415; -0.00914134
4.272; -2.50425; 0.0154803; 1.00421; -2.51878; 0.000142657; 0.0601881; 0.0706981; -0.00820763; -0.0129018
4.288; -2.50331; 0.0166258; 1.02189; -2.51878; 0.000142657; 0.0588329; 0.071595; -0.00597572; -0.00977072
4.304; -2.50239; 0.0177817; 1.03579; -2.51878; 0.000142657; 0.0577361; 0.072243; -0.00602092; -0.0101591
4.32; -2.50148; 0.0189499; 1.05221; -2.51878; 0.000142657; 0.0564451; 0.0730113; -0.00606156; -0.0106215
4.336; -2.50059; 0.0201232; 1.06105; -2.51878; 0.000142657; 0.0556981; 0.0733301; -0.00620068; -0.011092
4.352; -2.49972; 0.0213057; 1.07495; -2.51878; 0.000142657; 0.0545731; 0.0739106; -0.00629833; -0.0116436
4.368; -2.49887; 0.0225036; 1.09642; -2.51878; 0.000142657; 0.0528725; 0.0748687; -0.0063102; -0.012289
4.384; -2.49803; 0.0237014; 1.10021; -2.51878; 0.000142657; 0.0524838; 0.0748628; -0.00654271; -0.0128615
4.4; -2.49722; 0.0249104; 1.11789; -2.51878; 0.000142657; 0.0510462; 0.0755622; -0.00659741; -0.0135571
4.416; -2.49643; 0.026132; 1.13811; -2.51878; 0.000142657; 0.0494031; 0.0763497; -0.00660325; -0.0142964
4.432; -2.49564; 0.0273508; 1.13937; -2.51878; 0.000142657; 0.0491966; 0.0761732; -0.00687181; -0.0149273
4.448; -2.49488; 0.0285822; 1.16084; -2.51878; 0.000142657; 0.0474405; 0.0769607; -0.00682532; -0.0157057
4.464; -2.49414; 0.0298179; 1.17221; -2.51878; 0.000142657; 0.0464519; 0.0772323; -0.0069136; -0.0164169
4.48; -2.49341; 0.0310603; 1.18737; -2.51878; 0.000142657; 0.0451653; 0.0776532; -0.00691711; -0.0171473
4.496; -2.4927; 0.0323019; 1.19242; -2.51878; 0.000142657; 0.0446592; 0.0775957; -0.00707262; -0.0177914
4.512; -2.49201; 0.0335511; 1.21011; -2.51878; 0.000142657; 0.0431684; 0.0780773; -0.00697783; -0.0184994
4.528; -2.49133; 0.0348015; 1.21895; -2.51878; 0.000142657; 0.0423641; 0.0781502; -0.00701654; -0.0191121
4.544; -2.49066; 0.0360513; 1.22526; -2.51878; 0.000142657; 0.0417596; 0.0781104; -0.00687877; -0.019109
4.56; -2.49001; 0.0373055; 1.23663; -2.51878; 0.000142657; 0.0408034; 0.0783915; -0.00409379; -0.0117914
4.576; -2.48939; 0.0385697; 1.25937; -2.51878; 0.000142657; 0.0389172; 0.0790086; -0.00584013; -0.0181425
4.592; -2.48877; 0.0398317; 1.26316; -2.51878; 0.000142657; 0.038528; 0.0788735; -0.00559888; -0.0176217
4.608; -2.48817; 0.0410954; 1.27326; -2.51878; 0.000142657; 0.0376451; 0.0789855; -0.00523939; -0.0170867
4.624; -2.48759; 0.0423661; 1.29221; -2.51878; 0.000142657; 0.0360661; 0.0794196; -0.00473488; -0.0165541
4.64; -2.48704; 0.0436435; 1.31116; -2.51878; 0.000142657; 0.034487; 0.079833; -0.00424487; -0.0159801
4.656; -2.48649; 0.0449169; 1.31116; -2.51878; 0.000142657; 0.034422; 0.0795883; -0.00406334; -0.0152968
4.672; -2.48596; 0.0461967; 1.33011; -2.51878; 0.000142657; 0.0328504; 0.0799915; -0.00360013; -0.0146675
4.688; -2.48546; 0.0474827; 1.34905; -2.51878; 0.000142657; 0.0312784; 0.0803753; -0.00315971; -0.0140151
4.704; -2.48497; 0.0487697; 1.35789; -2.51878; 0.000142657; 0.0305204; 0.0804356; -0.0028787; -0.0133164
4.72; -2.4845; 0.0500595; 1.37053; -2.51878; 0.000142657; 0.029461; 0.0806128; -0.00256195; -0.012621
4.736; -2.48405; 0.0513521; 1.38316; -2.51878; 0.000142657; 0.0284042; 0.0807878; -0.00226327; -0.01192
4.752; -2.4836; 0.0526453; 1.39074; -2.51878; 0.000142657; 0.0277584; 0.0808214; -0.00203961; -0.0112047
4.768; -2.48318; 0.0539439; 1.40968; -2.51878; 0.000142657; 0.0261949; 0.0811647; -0.0017077; -0.0105076
4.784; -2.48279; 0.0552467; 1.42611; -2.51878; 0.000142657; 0.0248358; 0.0814272; -0.00142729; -0.00979549
4.8; -2.48241; 0.0565536; 1.44253; -2.51878; 0.000142657; 0.0234766; 0.081679; -0.00116939; -0.00906661
4.816; -2.48205; 0.057863; 1.45516; -2.51878; 0.000142657; 0.0224276; 0.0818361; -0.000964612; -0.00830441
4.832; -2.48169; 0.0591686; 1.45011; -2.51878; 0.000142657; 0.0228263; 0.0816021; -0.000906849; -0.00747728
4.848; -2.48136; 0.0604814; 1.47537; -2.51878; 0.000142657; 0.0207476; 0.0820472; -0.000630817; -0.00659033
4.864; -2.48104; 0.0617956; 1.48421; -2.51878; 0.000142657; 0.0200137; 0.0821388; -0.00048119; -0.00554348
4.88; -2.48072; 0.0631103; 1.48926; -2.51878; 0.000142657; 0.0195928; 0.0821709; -0.000346828; -0.0042444
4.896; -2.48045; 0.0644333; 1.51958; -2.51878; 0.000142657; 0.0170911; 0.0826869; -0.000128563; -0.00250796
4.912; -2.48018; 0.065758; 1.52589; -2.51878; 0.000142657; 0.0165686; 0.0827941; 2.5371e-06; 5.64656e-05
4.928; -2.47993; 0.0670855; 1.53221; -2.51878; 0.000142657; 0.016048; 0.0829655; 0.000164863; 0.00427051
4.944; -2.47969; 0.0684195; 1.54611; -2.51878; 0.000142657; 0.0148985; 0.0833749; 0.000300137; 0.0121532
4.96; -2.47947; 0.0697641; 1.56126; -2.51878; 0.000142657; 0.0136373; 0.0840395; 0.000267168; 0.0280243
4.976; -2.47928; 0.0711124; 1.57895; -2.51878; 0.000142657; 0.012149; 0.0842696; -1.06434e-06; 0.000130575
4.992; -2.4791; 0.0724536; 1.59411; -2.51878; 0.000142657; 0.0108848; 0.0838251; 0.000901953; -0.0386886
5.008; -2.47893; 0.0737863; 1.59537; -2.51878; 0.000142657; 0.0107923; 0.0832943; 0.000836362; -0.0340302
5.024; -2.47876; 0.0754999; 1.59411; -2.51878; 0.000142657; 0.0103422; 0.1071; -0.0347061; 1.48869
5.04; -2.47861; 0.0772234; 1.60042; -2.51878; 0.000142657; 0.00964902; 0.107721; -0.00103337; 0.0348718
5.056; -2.42847; 0.0446345; 1.60421; -2.42814; 0.0444084; 0.0213434; 0.0994956; -9.86891e-05; 0.00295241
5.072; -2.42813; 0.0462176; 1.60295; -2.42814; 0.0444084; 0.0214858; 0.0989493; 0.00104393; -0.0324584
5.088; -2.42777; 0.0477896; 1.59411; -2.42814; 0.0444084; 0.0223716; 0.0982487; 0.00073826; -0.0316671
5.104; -2.42742; 0.049357; 1.60168; -2.42814; 0.0444084; 0.0216404; 0.0979625; 0.000874801; -0.0283128
5.12; -2.42708; 0.050918; 1.60295; -2.42814; 0.0444084; 0.0215305; 0.0975591; 0.000865506; -0.0269107
5.136; -2.42673; 0.0524717; 1.60042; -2.42814; 0.0444084; 0.0217886; 0.0971072; 0.000735654; -0.0248252
5.152; -2.42639; 0.0540225; 1.608; -2.42814; 0.0444084; 0.0210648; 0.0969268; 0.000797486; -0.0214258
5.168; -2.42604; 0.0555652; 1.59789; -2.42814; 0.0444084; 0.0220511; 0.0964174; 0.000493987; -0.0182249
5.184; -2.42569; 0.0571059; 1.60295; -2.42814; 0.0444084; 0.0215712; 0.0962919; 0.000473579; -0.0147247
5.2; -2.42534; 0.0586428; 1.60042; -2.42814; 0.0444084; 0.0218196; 0.0960615; 0.000325396; -0.0109807
5.216; -2.425; 0.0601785; 1.60168; -2.42814; 0.0444084; 0.0217018; 0.0959763; 0.000217446; -0.0070376
5.232; -2.42467; 0.0617184; 1.61684; -2.42814; 0.0444084; 0.0202467; 0.096247; 0.000135973; -0.0029509
5.248; -2.42432; 0.0632514; 1.59537; -2.42814; 0.0444084; 0.0223082; 0.095809; -2.90665e-05; 0.00118267
5.264; -2.42396; 0.0647848; 1.59284; -2.42814; 0.0444084; 0.0225483; 0.0958381; -0.000118096; 0.00535597
5.28; -2.4236; 0.066322; 1.59663; -2.42814; 0.0444084; 0.022181; 0.0960747; -0.000245267; 0.0094914
5.296; -2.42326; 0.0678653; 1.60421; -2.42814; 0.0444084; 0.021445; 0.0964563; -0.000451865; 0.0135181
5.312; -2.42293; 0.0694156; 1.61179; -2.42814; 0.0444084; 0.0207019; 0.0968941; -0.000712786; 0.0173782
5.328; -2.42258; 0.0709677; 1.60168; -2.42814; 0.0444084; 0.0216699; 0.0970082; -0.000633844; 0.0205143
5.344; -2.42224; 0.0725274; 1.60547; -2.42814; 0.0444084; 0.0212886; 0.0974802; -0.000846909; 0.0244127
5.36; -2.42189; 0.0740915; 1.59789; -2.42814; 0.0444084; 0.0220148; 0.0977559; -0.00074501; 0.027486
5.376; -2.42153; 0.0756617; 1.59537; -2.42814; 0.0444084; 0.0222509; 0.0981378; -0.000672579; 0.0273662
5.392; -2.42117; 0.0772374; 1.59158; -2.42814; 0.0444084; 0.0226137; 0.0984832; -0.000559125; 0.0268996
5.408; -2.42082; 0.0788234; 1.60168; -2.42814; 0.0444084; 0.0216045; 0.0991236; -0.000805066; 0.0260558
5.424; -2.42048; 0.0804157; 1.60168; -2.42814; 0.0444084; 0.0215922; 0.0995216; -0.000768734; 0.02488
5.44; -2.42011; 0.08201; 1.59032; -2.42814; 0.0444084; 0.0227149; 0.0996439; -0.000456488; 0.0233833
5.456; -2.41976; 0.0836126; 1.59789; -2.42814; 0.0444084; 0.0219497; 0.100158; -0.000584619; 0.0215687
5.472; -2.41941; 0.0852205; 1.59916; -2.42814; 0.0444084; 0.0218143; 0.100497; -0.000551801; 0.0194507
5.488; -2.41907; 0.0868342; 1.60295; -2.42814; 0.0444084; 0.0214246; 0.100852; -0.000549312; 0.0170795
5.504; -2.41873; 0.0884511; 1.60168; -2.42814; 0.0444084; 0.0215448; 0.101057; -0.00044815; 0.0145043
5.52; -2.41838; 0.0900701; 1.59916; -2.42814; 0.0444084; 0.0217947; 0.10119; -0.000333197; 0.011745
5.536; -2.41804; 0.0916945; 1.608; -2.42814; 0.0444084; 0.0208938; 0.101521; -0.000329069; 0.008841
5.552; -2.41768; 0.093315; 1.59284; -2.42814; 0.0444084; 0.0224281; 0.101286; -0.000128963; 0.00584884
5.568; -2.41733; 0.0949363; 1.59284; -2.42814; 0.0444084; 0.0224271; 0.101331; -6.24948e-05; 0.00283431
5.584; -2.41699; 0.0965616; 1.60421; -2.42814; 0.0444084; 0.0212738; 0.101577; 6.50921e-06; -0.000194731
5.6; -2.41664; 0.0981847; 1.60042; -2.42814; 0.0444084; 0.0216601; 0.101444; 9.44728e-05; -0.00318805
5.616; -2.41628; 0.0998044; 1.59537; -2.42814; 0.0444084; 0.0221748; 0.101236; 0.00014966; -0.00608942
5.632; -2.41593; 0.101422; 1.59537; -2.42814; 0.0444084; 0.0221783; 0.101094; 0.000217612; -0.00885427
5.648; -2.41558; 0.103039; 1.60168; -2.42814; 0.0444084; 0.021545; 0.101049; 0.000353475; -0.0114402
5.664; -2.41522; 0.104648; 1.59158; -2.42814; 0.0444084; 0.0225696; 0.100605; 0.000287185; -0.0138165
5.68; -2.4149; 0.106262; 1.61432; -2.42814; 0.0444084; 0.0202876; 0.100838; 0.000693673; -0.0159293
5.696; -2.41453; 0.107862; 1.58905; -2.42814; 0.0444084; 0.0228336; 0.100008; 0.000324766; -0.0177873
5.712; -2.41418; 0.10946; 1.59789; -2.42814; 0.0444084; 0.0219568; 0.0998947; 0.00052805; -0.0194816
5.728; -2.41382; 0.111052; 1.59284; -2.42814; 0.0444084; 0.0224685; 0.0994548; 0.000451572; -0.02048
5.744; -2.41348; 0.112642; 1.60547; -2.42814; 0.0444084; 0.0212223; 0.0993891; 0.000740471; -0.0213446
5.76; -2.41313; 0.114224; 1.59916; -2.42814; 0.0444084; 0.0218596; 0.0989026; 0.000621565; -0.0219099
5.776; -2.41278; 0.1158; 1.59537; -2.42814; 0.0444084; 0.0222429; 0.0984657; 0.000542744; -0.0220834
5.792; -2.41242; 0.11737; 1.59537; -2.42814; 0.0444084; 0.0222515; 0.0981153; 0.000538204; -0.0218987
5.808; -2.41207; 0.118935; 1.59789; -2.42814; 0.0444084; 0.0220128; 0.0978294; 0.000578984; -0.0213608
5.824; -2.41172; 0.120497; 1.60295; -2.42814; 0.0444084; 0.0215288; 0.0976118; 0.000658544; -0.0204758
5.84; -2.41137; 0.12205; 1.59411; -2.42814; 0.0444084; 0.0223982; 0.0971094; 0.000449084; -0.0192631
5.856; -2.41102; 0.123602; 1.60042; -2.42814; 0.0444084; 0.0217929; 0.0969649; 0.00052606; -0.0177523
5.872; -2.41066; 0.125146; 1.59284; -2.42814; 0.0444084; 0.0225327; 0.096542; 0.000351283; -0.0159317
5.888; -2.41031; 0.126691; 1.60168; -2.42814; 0.0444084; 0.0216851; 0.0965163; 0.000427123; -0.0138238
5.904; -2.40997; 0.128235; 1.60926; -2.42814; 0.0444084; 0.02096; 0.0964943; 0.000441687; -0.0114766
5.92; -2.40962; 0.129772; 1.59663; -2.42814; 0.0444084; 0.0221809; 0.0960789; 0.000230794; -0.00893131
5.936; -2.40926; 0.131307; 1.59537; -2.42814; 0.0444084; 0.0223047; 0.0959514; 0.000152722; -0.00621401
5.952; -2.40891; 0.132843; 1.60042; -2.42814; 0.0444084; 0.0218212; 0.096009; 9.98429e-05; -0.00336927
5.968; -2.40857; 0.134381; 1.60547; -2.42814; 0.0444084; 0.0213361; 0.0961111; 1.4889e-05; -0.000429185
5.984; -2.40822; 0.135918; 1.60042; -2.42814; 0.0444084; 0.0218202; 0.0960431; -7.60041e-05; 0.00256481
6; -2.40786; 0.137452; 1.58905; -2.42814; 0.0444084; 0.0229088; 0.0958858; -0.000110624; 0.00605883
6.016; -2.40751; 0.138994; 1.60421; -2.42814; 0.0444084; 0.0214483; 0.0963581; -0.000284185; 0.00850174
6.032; -2.40715; 0.140533; 1.59032; -2.42814; 0.0444084; 0.0227815; 0.0962322; -0.000221376; 0.0113399
6.048; -2.40681; 0.142082; 1.60674; -2.42814; 0.0444084; 0.0211902; 0.0968179; -0.000504647; 0.0140351
6.064; -2.39743; 0.142454; 1.60547; -2.39739; 0.142448; 0.0233636; 0.0967867; -0.000574716; 0.0165666
6.08; -2.39703; 0.144001; 1.58905; -2.39739; 0.142448; 0.0249442; 0.0966928; -0.000345549; 0.0189255
6.096; -2.39665; 0.145558; 1.60042; -2.39739; 0.142448; 0.0238334; 0.0973065; -0.00062299; 0.0210233
6.112; -2.39628; 0.147123; 1.60674; -2.39739; 0.142448; 0.0232052; 0.0978206; -0.000821355; 0.0228433
6.128; -2.39589; 0.148689; 1.59411; -2.39739; 0.142448; 0.0244299; 0.0979098; -0.00056848; 0.0243845
6.144; -2.39552; 0.150267; 1.60547; -2.39739; 0.142448; 0.023301; 0.0985907; -0.000887877; 0.0255937
6.16; -2.39514; 0.15185; 1.60168; -2.39739; 0.142448; 0.0236614; 0.0989254; -0.000818197; 0.0264808
6.176; -2.39476; 0.153439; 1.60168; -2.39739; 0.142448; 0.023648; 0.0993577; -0.000834782; 0.0270176
6.192; -2.39438; 0.155037; 1.60295; -2.39739; 0.142448; 0.0235086; 0.0998186; -0.000866634; 0.0269458
6.208; -2.394; 0.156638; 1.59537; -2.39739; 0.142448; 0.0242541; 0.100062; -0.000651881; 0.026524
6.224; -2.39362; 0.158248; 1.60295; -2.39739; 0.142448; 0.0234818; 0.100654; -0.000826255; 0.0256903
6.24; -2.39324; 0.159863; 1.59789; -2.39739; 0.142448; 0.0239793; 0.100929; -0.000668782; 0.0246737
6.256; -2.39287; 0.161487; 1.60547; -2.39739; 0.142448; 0.0232009; 0.101479; -0.000804513; 0.0231907
6.272; -2.3925; 0.163116; 1.60547; -2.39739; 0.142448; 0.023189; 0.101821; -0.000743282; 0.0214256
6.288; -2.39213; 0.164751; 1.608; -2.39739; 0.142448; 0.0229201; 0.10219; -0.00072106; 0.0193725
6.304; -2.39175; 0.166387; 1.60042; -2.39739; 0.142448; 0.0236861; 0.102278; -0.000490016; 0.0165359
6.32; -2.39137; 0.168026; 1.59789; -2.39739; 0.142448; 0.0239381; 0.10245; -0.000393491; 0.0145173
6.336; -2.391; 0.169672; 1.608; -2.39739; 0.142448; 0.0228946; 0.102875; -0.000438793; 0.0117889
6.352; -2.39063; 0.171321; 1.608; -2.39739; 0.142448; 0.0228893; 0.103018; -0.000333502; 0.0089601
6.368; -2.39027; 0.172971; 1.60926; -2.39739; 0.142448; 0.0227554; 0.103143; -0.000231491; 0.00601498
6.384; -2.38989; 0.174618; 1.59916; -2.39739; 0.142448; 0.0237952; 0.102956; -8.54851e-05; 0.00301331
6.4; -2.3895; 0.176264; 1.59411; -2.39739; 0.142448; 0.0243151; 0.102835; -1.16752e-07; 5.00801e-06
6.416; -2.38912; 0.17791; 1.59916; -2.39739; 0.142448; 0.0237965; 0.102909; 8.40803e-05; -0.00296379
6.432; -2.38875; 0.179557; 1.60421; -2.39739; 0.142448; 0.0232794; 0.102934; 0.000195513; -0.00584901
6.448; -2.38835; 0.181197; 1.59158; -2.39739; 0.142448; 0.0245806; 0.102494; 0.000179035; -0.00861341
6.464; -2.38796; 0.182835; 1.59411; -2.39739; 0.142448; 0.0243257; 0.102377; 0.000261382; -0.0112118
6.48; -2.3876; 0.184474; 1.60674; -2.39739; 0.142448; 0.0230385; 0.102458; 0.000490691; -0.013647
6.496; -2.38723; 0.18611; 1.60674; -2.39739; 0.142448; 0.0230476; 0.102204; 0.000568752; -0.015818
6.512; -2.38685; 0.187738; 1.59916; -2.39739; 0.142448; 0.0238296; 0.101743; 0.000502997; -0.0177304
6.528; -2.38645; 0.189358; 1.59284; -2.39739; 0.142448; 0.0244785; 0.101281; 0.000426637; -0.0193492
6.544; -2.38607; 0.190975; 1.59663; -2.39739; 0.142448; 0.0241031; 0.101043; 0.000533443; -0.0206433
6.56; -2.38568; 0.192585; 1.59537; -2.39739; 0.142448; 0.0242392; 0.100667; 0.000530664; -0.0215918
6.576; -2.3853; 0.194193; 1.60168; -2.39739; 0.142448; 0.0236139; 0.100464; 0.000684187; -0.0221436
6.592; -2.38493; 0.195795; 1.60295; -2.39739; 0.142448; 0.0234985; 0.100135; 0.000719232; -0.0223627
6.608; -2.38456; 0.197395; 1.61179; -2.39739; 0.142448; 0.0226267; 0.0999841; 0.000910538; -0.0221995
6.624; -2.38418; 0.198983; 1.59663; -2.39739; 0.142448; 0.0241486; 0.0992828; 0.00056024; -0.0216803
6.64; -2.38379; 0.200565; 1.59284; -2.39739; 0.142448; 0.0245319; 0.098858; 0.000458292; -0.0207848
6.656; -2.38339; 0.202141; 1.59032; -2.39739; 0.142448; 0.0247877; 0.0984832; 0.000381363; -0.0195351
6.672; -2.38301; 0.203717; 1.60295; -2.39739; 0.142448; 0.023551; 0.0985013; 0.000577122; -0.0179441
6.688; -2.38264; 0.20529; 1.608; -2.39739; 0.142448; 0.0230626; 0.0983623; 0.000597292; -0.0160472
6.704; -2.38226; 0.206858; 1.60042; -2.39739; 0.142448; 0.023814; 0.0979626; 0.000411225; -0.0138771
6.72; -2.38187; 0.208419; 1.59284; -2.39739; 0.142448; 0.0245598; 0.097596; 0.00025267; -0.0114593
6.736; -2.38148; 0.209981; 1.59789; -2.39739; 0.142448; 0.0240702; 0.0975768; 0.000240577; -0.00887574
6.752; -2.38111; 0.211544; 1.60674; -2.39739; 0.142448; 0.0232099; 0.0976902; 0.000214848; -0.0059753
6.768; -2.38073; 0.213102; 1.59663; -2.39739; 0.142448; 0.0241972; 0.0974014; 7.97017e-05; -0.00308431
6.784; -2.38036; 0.214666; 1.61053; -2.39739; 0.142448; 0.0228416; 0.0977267; 3.74423e-06; -9.41922e-05
6.8; -2.37998; 0.216225; 1.59789; -2.39739; 0.142448; 0.0240729; 0.0974771; -7.92765e-05; 0.00292479
6.816; -2.3796; 0.217788; 1.60168; -2.39739; 0.142448; 0.0237004; 0.0976625; -0.000183163; 0.00592805
6.832; -2.37921; 0.219352; 1.60042; -2.39739; 0.142448; 0.0238195; 0.0977745; -0.000262986; 0.00887463
6.848; -2.37884; 0.220922; 1.60547; -2.39739; 0.142448; 0.0233187; 0.0980811; -0.000406476; 0.0117169
6.864; -2.37846; 0.222493; 1.60042; -2.39739; 0.142448; 0.0238072; 0.0981923; -0.000426548; 0.0143942
6.88; -2.37808; 0.224068; 1.59916; -2.39739; 0.142448; 0.0239235; 0.098433; -0.000480168; 0.0169257
6.896; -2.37769; 0.225646; 1.59411; -2.39739; 0.142448; 0.0244134; 0.0986187; -0.000448634; 0.0192438
6.912; -2.37731; 0.227233; 1.60421; -2.39739; 0.142448; 0.0234042; 0.0992013; -0.000712132; 0.0213043
6.928; -2.37693; 0.228824; 1.59789; -2.39739; 0.142448; 0.0240202; 0.099421; -0.000625989; 0.0230949
6.944; -2.37655; 0.230423; 1.60421; -2.39739; 0.142448; 0.0233787; 0.0999638; -0.000821296; 0.0245701
6.96; -2.37617; 0.232027; 1.59789; -2.39739; 0.142448; 0.0239984; 0.100226; -0.000697286; 0.0257253
6.976; -2.37579; 0.233639; 1.60295; -2.39739; 0.142448; 0.023478; 0.100771; -0.00085399; 0.0265526
6.992; -2.3754; 0.235254; 1.59284; -2.39739; 0.142448; 0.0244855; 0.100963; -0.000599788; 0.0272021
7.008; -2.37501; 0.236876; 1.59032; -2.39739; 0.142448; 0.024732; 0.101338; -0.000532979; 0.0273015
7.024; -2.37463; 0.238508; 1.60042; -2.39739; 0.142448; 0.0236941; 0.102008; -0.00078654; 0.0265424
7.04; -2.37426; 0.240148; 1.60421; -2.39739; 0.142448; 0.0232936; 0.102508; -0.000860498; 0.0257429
7.056; -2.37389; 0.241795; 1.60547; -2.39739; 0.142448; 0.0231505; 0.102931; -0.000853415; 0.0246003
7.072; -2.40172; 0.268872; 1.60547; -2.40183; 0.268973; 0.0171507; 0.108698; -0.000802655; 0.0231371
7.088; -2.40143; 0.270614; 1.59411; -2.40183; 0.268973; 0.0183773; 0.108839; -0.000499165; 0.0214113
7.104; -2.40115; 0.272363; 1.60421; -2.40183; 0.268973; 0.0172662; 0.109329; -0.00064736; 0.0193666
7.12; -2.40087; 0.274116; 1.60295; -2.40183; 0.268973; 0.0173955; 0.10958; -0.00054957; 0.0170875
7.136; -2.40061; 0.275875; 1.60926; -2.40183; 0.268973; 0.0166941; 0.109921; -0.000561788; 0.0145973
7.152; -2.40032; 0.277634; 1.59916; -2.40183; 0.268973; 0.0177986; 0.109938; -0.000338859; 0.0119446
7.168; -2.40004; 0.279396; 1.60168; -2.40183; 0.268973; 0.0175162; 0.110129; -0.000282862; 0.00915479
7.184; -2.39975; 0.281157; 1.59411; -2.40183; 0.268973; 0.0183481; 0.110094; -0.000146312; 0.00627596
7.2; -2.39947; 0.282923; 1.60421; -2.40183; 0.268973; 0.0172328; 0.110327; -0.000111789; 0.0033443
7.216; -2.39919; 0.284687; 1.60168; -2.40183; 0.268973; 0.0175113; 0.110288; -9.82086e-06; 0.000317851
7.232; -2.3989; 0.28645; 1.59663; -2.40183; 0.268973; 0.0180694; 0.110159; 6.29414e-05; -0.00243572
7.248; -2.39862; 0.288212; 1.59916; -2.40183; 0.268973; 0.0177934; 0.11012; 0.000150172; -0.00529351
7.264; -2.39833; 0.289972; 1.59916; -2.40183; 0.268973; 0.017797; 0.109992; 0.000227593; -0.00802256
7.28; -2.39805; 0.291728; 1.59789; -2.40183; 0.268973; 0.0179406; 0.1098; 0.000287137; -0.0105935
7.296; -2.39776; 0.293482; 1.59663; -2.40183; 0.268973; 0.0180846; 0.109568; 0.000337615; -0.0130651
7.312; -2.39748; 0.295232; 1.60295; -2.40183; 0.268973; 0.0174003; 0.109431; 0.000501; -0.0155773
7.328; -2.39719; 0.296978; 1.59789; -2.40183; 0.268973; 0.0179604; 0.109068; 0.000462507; -0.0170635
7.344; -2.39692; 0.298721; 1.608; -2.40183; 0.268973; 0.0168684; 0.108945; 0.000695204; -0.0186778
7.36; -2.39663; 0.300456; 1.59916; -2.40183; 0.268973; 0.0178401; 0.108473; 0.000566428; -0.0199663
7.376; -2.39634; 0.302185; 1.59284; -2.40183; 0.268973; 0.0185323; 0.108022; 0.000461908; -0.0209488
7.392; -2.39606; 0.30391; 1.60168; -2.40183; 0.268973; 0.0175871; 0.107837; 0.000666554; -0.0215729
7.408; -2.39577; 0.305629; 1.59789; -2.40183; 0.268973; 0.0180051; 0.10742; 0.000592113; -0.0218451
7.424; -2.39548; 0.307342; 1.59789; -2.40183; 0.268973; 0.0180145; 0.107072; 0.000589598; -0.0217523
7.44; -2.39519; 0.309049; 1.59663; -2.40183; 0.268973; 0.0181585; 0.106708; 0.000550411; -0.0212999
7.456; -2.3949; 0.310752; 1.59916; -2.40183; 0.268973; 0.0178982; 0.106426; 0.000581369; -0.020493
7.472; -2.39462; 0.31245; 1.60042; -2.40183; 0.268973; 0.0177729; 0.106139; 0.000573907; -0.0193669
7.488; -2.39434; 0.314145; 1.60295; -2.40183; 0.268973; 0.017514; 0.105896; 0.00057662; -0.0179286
7.504; -2.39405; 0.315833; 1.59789; -2.40183; 0.268973; 0.0180558; 0.105548; 0.000438538; -0.0161792
7.52; -2.39377; 0.317521; 1.60547; -2.40183; 0.268973; 0.0172632; 0.105455; 0.000491059; -0.0141551
7.536; -2.39349; 0.319203; 1.60042; -2.40183; 0.268973; 0.0178015; 0.105176; 0.000352511; -0.0118957
7.552; -2.3932; 0.320884; 1.60042; -2.40183; 0.268973; 0.0178059; 0.105025; 0.000279223; -0.00942259
7.568; -2.39293; 0.322564; 1.60421; -2.40183; 0.268973; 0.0174114; 0.104984; 0.000225629; -0.00674996
7.584; -2.39264; 0.32424; 1.59789; -2.40183; 0.268973; 0.0180758; 0.104809; 0.000106717; -0.00393717
7.6; -2.39235; 0.325917; 1.59663; -2.40183; 0.268973; 0.0182086; 0.104769; 2.68874e-05; -0.00104049
7.616; -2.39206; 0.327595; 1.60295; -2.40183; 0.268973; 0.0175456; 0.104913; -6.16436e-05; 0.00191665
7.632; -2.39178; 0.329275; 1.60042; -2.40183; 0.268973; 0.0178083; 0.104947; -0.000144949; 0.00489142
7.648; -2.39149; 0.330955; 1.59789; -2.40183; 0.268973; 0.0180699; 0.105027; -0.000212505; 0.00784007
7.664; -2.39121; 0.332639; 1.60042; -2.40183; 0.268973; 0.0177995; 0.105244; -0.000317582; 0.010717
7.68; -2.39092; 0.334326; 1.60042; -2.40183; 0.268973; 0.0177931; 0.105459; -0.000399475; 0.0134806
7.696; -2.39063; 0.336017; 1.59663; -2.40183; 0.268973; 0.0181859; 0.105648; -0.000415771; 0.0160896
7.712; -2.39035; 0.337714; 1.60295; -2.40183; 0.268973; 0.0175088; 0.106057; -0.000594913; 0.0184973
7.728; -2.39004; 0.339411; 1.58779; -2.40183; 0.268973; 0.0191087; 0.106109; -0.000349872; 0.020587
7.744; -2.38977; 0.34112; 1.60421; -2.40183; 0.268973; 0.0173517; 0.106771; -0.000757138; 0.0226507
7.76; -2.38948; 0.342832; 1.59663; -2.40183; 0.268973; 0.0181504; 0.107024; -0.000626259; 0.0242351
7.776; -2.3892; 0.344553; 1.60295; -2.40183; 0.268973; 0.017461; 0.107545; -0.000820217; 0.0255026
7.792; -2.38892; 0.346281; 1.60547; -2.40183; 0.268973; 0.0171745; 0.108011; -0.00091693; 0.0264311
7.808; -2.38864; 0.348015; 1.60042; -2.40183; 0.268973; 0.0177073; 0.108355; -0.00080018; 0.0270027
7.824; -2.38835; 0.349754; 1.59663; -2.40183; 0.268973; 0.0181066; 0.108718; -0.000696113; 0.0269383
7.84; -2.38807; 0.351502; 1.60168; -2.40183; 0.268973; 0.017544; 0.109232; -0.00081881; 0.0265007
7.856; -2.38778; 0.353255; 1.59916; -2.40183; 0.268973; 0.0178082; 0.109599; -0.000728789; 0.0256895
7.872; -2.3875; 0.355015; 1.59789; -2.40183; 0.268973; 0.017936; 0.109969; -0.000664981; 0.0245335
7.888; -2.38721; 0.356781; 1.60042; -2.40183; 0.268973; 0.0176472; 0.110383; -0.000683495; 0.023065
7.904; -2.38694; 0.358554; 1.60421; -2.40183; 0.268973; 0.0172174; 0.110789; -0.000711645; 0.0212897
7.92; -2.38664; 0.360328; 1.59284; -2.40183; 0.268973; 0.0184689; 0.110894; -0.000424312; 0.0192437
7.936; -2.38636; 0.362109; 1.60042; -2.40183; 0.268973; 0.0176199; 0.111302; -0.000501939; 0.0169383
7.952; -2.38609; 0.363895; 1.60547; -2.40183; 0.268973; 0.0170493; 0.111621; -0.000500195; 0.0144185
7.968; -2.38581; 0.365683; 1.60295; -2.40183; 0.268973; 0.0173252; 0.111765; -0.000377188; 0.0117277
7.984; -2.38553; 0.367473; 1.60042; -2.40183; 0.268973; 0.0176033; 0.111863; -0.00026453; 0.00892674
8; -2.38524; 0.369263; 1.59537; -2.40183; 0.268973; 0.0181657; 0.111877; -0.00015977; 0.00650078
8.016; -2.38495; 0.371053; 1.59411; -2.40183; 0.268973; 0.0183059; 0.111903; -7.19089e-05; 0.00308448
8.032; -2.38466; 0.372845; 1.59916; -2.40183; 0.268973; 0.0177402; 0.111996; -2.05912e-06; 7.25829e-05
8.048; -2.38436; 0.374634; 1.59032; -2.40183; 0.268973; 0.0187307; 0.111788; 5.63272e-05; -0.00288533
8.064; -2.38407; 0.376423; 1.59663; -2.40183; 0.268973; 0.0180266; 0.111812; 0.000148904; -0.00576231
8.08; -2.4062; 0.395449; 1.60421; -2.40627; 0.395503; 0.0127774; 0.115201; 0.000283874; -0.00849245
8.096; -2.40599; 0.397289; 1.60168; -2.40627; 0.395503; 0.0130738; 0.114991; 0.000341661; -0.0110578
8.112; -2.40577; 0.399124; 1.59663; -2.40627; 0.395503; 0.0136602; 0.114708; 0.000347116; -0.0134328
8.128; -2.40554; 0.400954; 1.59032; -2.40627; 0.395503; 0.0143893; 0.114371; 0.000303836; -0.0155638
8.144; -2.40533; 0.402783; 1.60421; -2.40627; 0.395503; 0.0128081; 0.114281; 0.000581966; -0.0174102
8.16; -2.40513; 0.404606; 1.60295; -2.40627; 0.395503; 0.0129622; 0.113962; 0.000609788; -0.0189598
8.176; -2.40491; 0.406424; 1.59916; -2.40627; 0.395503; 0.0134031; 0.113589; 0.000572644; -0.0201854
8.192; -2.4047; 0.408236; 1.60295; -2.40627; 0.395503; 0.0129834; 0.113302; 0.00067746; -0.0210639
8.208; -2.4045; 0.410044; 1.60674; -2.40627; 0.395503; 0.0125664; 0.113005; 0.000776216; -0.0215879
8.224; -2.4043; 0.411846; 1.60421; -2.40627; 0.395503; 0.0128635; 0.112624; 0.000729128; -0.0218128
8.24; -2.40408; 0.413642; 1.60042; -2.40627; 0.395503; 0.0133004; 0.11223; 0.000637325; -0.021507
8.256; -2.40385; 0.41543; 1.59158; -2.40627; 0.395503; 0.0142992; 0.111772; 0.000436334; -0.0209921
8.272; -2.40364; 0.417215; 1.59789; -2.40627; 0.395503; 0.0136017; 0.111538; 0.000544784; -0.020099
8.288; -2.40344; 0.418997; 1.60926; -2.40627; 0.395503; 0.0123445; 0.111384; 0.000726367; -0.0188736
8.304; -2.40323; 0.420774; 1.60421; -2.40627; 0.395503; 0.0129166; 0.111035; 0.000596734; -0.0178521
8.32; -2.403; 0.422543; 1.59032; -2.40627; 0.395503; 0.014463; 0.110595; 0.000304351; -0.0155902
8.336; -2.4028; 0.424313; 1.60547; -2.40627; 0.395503; 0.0127925; 0.110586; 0.00046798; -0.0134899
8.352; -2.40259; 0.426079; 1.60295; -2.40627; 0.395503; 0.0130776; 0.110374; 0.000359023; -0.0111629
8.368; -2.40235; 0.427839; 1.58905; -2.40627; 0.395503; 0.0146124; 0.110044; 0.000157825; -0.00864397
8.384; -2.40213; 0.4296; 1.59537; -2.40627; 0.395503; 0.0139195; 0.110038; 0.000146659; -0.00596731
8.4; -2.40192; 0.431362; 1.60421; -2.40627; 0.395503; 0.0129476; 0.110106; 0.000105717; -0.00316264
8.416; -2.40171; 0.433122; 1.59789; -2.40627; 0.395503; 0.0136429; 0.110018; 7.40245e-06; -0.000273102
8.432; -2.40147; 0.434881; 1.59032; -2.40627; 0.395503; 0.0144755; 0.109954; -5.19378e-05; 0.00266048
8.448; -2.40126; 0.436645; 1.60295; -2.40627; 0.395503; 0.0130826; 0.110218; -0.000179811; 0.00559078
8.464; -2.40106; 0.43841; 1.60295; -2.40627; 0.395503; 0.0130782; 0.110353; -0.000272595; 0.00847566
8.48; -2.40085; 0.440179; 1.60295; -2.40627; 0.395503; 0.0130725; 0.110533; -0.000361328; 0.0112346
8.496; -2.40064; 0.441952; 1.60674; -2.40627; 0.395503; 0.0126455; 0.110804; -0.000499052; 0.0138795
8.512; -2.40044; 0.443728; 1.60547; -2.40627; 0.395503; 0.0127764; 0.111049; -0.000567406; 0.0163559
8.528; -2.40022; 0.445509; 1.59916; -2.40627; 0.395503; 0.0134691; 0.111264; -0.000528323; 0.0186231
8.544; -2.40001; 0.447294; 1.59916; -2.40627; 0.395503; 0.0134597; 0.111595; -0.000585659; 0.0206442
8.56; -2.39978; 0.449084; 1.59411; -2.40627; 0.395503; 0.014015; 0.111884; -0.000522212; 0.0223999
8.576; -2.39957; 0.450882; 1.60168; -2.40627; 0.395503; 0.0131548; 0.112369; -0.000738207; 0.023892
8.592; -2.39936; 0.452686; 1.59916; -2.40627; 0.395503; 0.0134273; 0.112736; -0.000710634; 0.0250495
8.608; -2.39915; 0.454497; 1.60042; -2.40627; 0.395503; 0.0132726; 0.113167; -0.000766723; 0.0258736
8.624; -2.39894; 0.456315; 1.60295; -2.40627; 0.395503; 0.0129731; 0.113622; -0.000847765; 0.0263591
8.64; -2.39872; 0.458138; 1.59663; -2.40627; 0.395503; 0.0136795; 0.113962; -0.000684972; 0.0265072
8.656; -2.39853; 0.459971; 1.61179; -2.40627; 0.395503; 0.0119333; 0.114577; -0.00107833; 0.0262905
8.672; -2.39832; 0.461809; 1.60295; -2.40627; 0.395503; 0.0129327; 0.114879; -0.000828225; 0.0257516
8.688; -2.39812; 0.463654; 1.60295; -2.40627; 0.395503; 0.0129199; 0.115277; -0.00079978; 0.0248671
8.704; -2.3979; 0.465503; 1.59916; -2.40627; 0.395503; 0.0133459; 0.115605; -0.000671216; 0.02366
8.72; -2.39768; 0.467358; 1.59411; -2.40627; 0.395503; 0.0139216; 0.115891; -0.000516237; 0.0221436
8.736; -2.39747; 0.469219; 1.60295; -2.40627; 0.395503; 0.0128859; 0.116334; -0.000651812; 0.0202664
8.752; -2.39725; 0.471083; 1.59411; -2.40627; 0.395503; 0.0139072; 0.116508; -0.000427282; 0.0183279
8.768; -2.39703; 0.472952; 1.59663; -2.40627; 0.395503; 0.0136062; 0.116799; -0.000413065; 0.0159849
8.784; -2.39682; 0.474825; 1.60042; -2.40627; 0.395503; 0.0131571; 0.117065; -0.000399025; 0.0134654
8.8; -2.39661; 0.476701; 1.60168; -2.40627; 0.395503; 0.0130039; 0.117254; -0.00033294; 0.0107756
8.816; -2.39639; 0.478578; 1.59411; -2.40627; 0.395503; 0.0138892; 0.117279; -0.000185488; 0.00795635
8.832; -2.39618; 0.480456; 1.59789; -2.40627; 0.395503; 0.0134425; 0.117412; -0.000136789; 0.00504662
8.848; -2.39596; 0.482335; 1.59537; -2.40627; 0.395503; 0.0137382; 0.117411; -5.15281e-05; 0.0020966
8.864; -2.39574; 0.484213; 1.59411; -2.40627; 0.395503; 0.0138869; 0.11738; 2.07144e-05; -0.000888528
8.88; -2.39553; 0.486092; 1.60547; -2.40627; 0.395503; 0.0125537; 0.117469; 0.000131419; -0.00378825
8.896; -2.39533; 0.48797; 1.60547; -2.40627; 0.395503; 0.0125574; 0.117364; 0.000228819; -0.00659586
8.912; -2.39513; 0.489845; 1.60421; -2.40627; 0.395503; 0.0127105; 0.117199; 0.000309889; -0.00927071
8.928; -2.39491; 0.491716; 1.59789; -2.40627; 0.395503; 0.0134556; 0.116928; 0.000319154; -0.0117747
8.944; -2.3947; 0.493583; 1.59789; -2.40627; 0.395503; 0.0134617; 0.116703; 0.000381295; -0.0140673
8.96; -2.39448; 0.495446; 1.59663; -2.40627; 0.395503; 0.0136158; 0.116428; 0.000416496; -0.0161176
8.976; -2.39428; 0.497306; 1.60547; -2.40627; 0.395503; 0.0125957; 0.116258; 0.000619857; -0.0178678
8.992; -2.39406; 0.499159; 1.59284; -2.40627; 0.395503; 0.01407; 0.115782; 0.000423754; -0.0192184
9.008; -2.39384; 0.501007; 1.59663; -2.40627; 0.395503; 0.0136394; 0.115514; 0.0005185; -0.020065
9.024; -2.39363; 0.502851; 1.60168; -2.40627; 0.395503; 0.0130661; 0.115241; 0.000656644; -0.0212522
9.04; -2.39342; 0.50469; 1.60295; -2.40627; 0.395503; 0.0129317; 0.11491; 0.000698377; -0.0217143
9.056; -2.3932; 0.506521; 1.59663; -2.40627; 0.395503; 0.0136662; 0.114477; 0.000563966; -0.0218245
9.072; -2.39299; 0.508348; 1.59916; -2.40627; 0.395503; 0.0133867; 0.114166; 0.000611833; -0.0215668
9.088; -2.41065; 0.522004; 1.59284; -2.4107; 0.522034; 0.0108542; 0.115902; 0.000461244; -0.0209187
9.104; -2.4105; 0.523855; 1.60421; -2.4107; 0.522034; 0.00954653; 0.115698; 0.000666503; -0.0199393
9.12; -2.41033; 0.525699; 1.59411; -2.4107; 0.522034; 0.0107221; 0.115298; 0.000434394; -0.018633
9.136; -2.41018; 0.527542; 1.60421; -2.4107; 0.522034; 0.00956558; 0.115129; 0.000568069; -0.0169945
9.152; -2.41001; 0.529379; 1.59916; -2.4107; 0.522034; 0.010154; 0.114838; 0.000427417; -0.0150663
9.168; -2.40985; 0.531212; 1.59537; -2.4107; 0.522034; 0.0105942; 0.114592; 0.000316263; -0.0128682
9.184; -2.40967; 0.533042; 1.59032; -2.4107; 0.522034; 0.0111763; 0.114371; 0.000203709; -0.0104349
9.2; -2.40951; 0.534872; 1.60042; -2.4107; 0.522034; 0.0100237; 0.114353; 0.000231157; -0.00780056
9.216; -2.40936; 0.536702; 1.60926; -2.4107; 0.522034; 0.00901533; 0.114355; 0.000196576; -0.00510775
9.232; -2.4092; 0.538529; 1.59789; -2.4107; 0.522034; 0.0103156; 0.114213; 5.5505e-05; -0.00204778
9.248; -2.40905; 0.540358; 1.60674; -2.4107; 0.522034; 0.00930485; 0.114314; -3.24503e-05; 0.000902501
9.264; -2.40889; 0.542187; 1.60168; -2.4107; 0.522034; 0.0098804; 0.114327; -0.000119885; 0.00388007
9.28; -2.40873; 0.544019; 1.60295; -2.4107; 0.522034; 0.00973246; 0.114449; -0.000220138; 0.00684463
9.296; -2.40855; 0.54585; 1.58779; -2.4107; 0.522034; 0.0114634; 0.114445; -0.000165572; 0.00974255
9.312; -2.40839; 0.547686; 1.59789; -2.4107; 0.522034; 0.0103012; 0.114746; -0.000325198; 0.0119977
9.328; -2.40823; 0.549526; 1.60042; -2.4107; 0.522034; 0.0100041; 0.115014; -0.000448254; 0.0151267
9.344; -2.40807; 0.551371; 1.60168; -2.4107; 0.522034; 0.00985012; 0.115308; -0.000542279; 0.0175508
9.36; -2.40791; 0.553221; 1.60168; -2.4107; 0.522034; 0.00984033; 0.115624; -0.000611561; 0.0197931
9.376; -2.40777; 0.555077; 1.608; -2.4107; 0.522034; 0.00909694; 0.116032; -0.000809093; 0.0217376
9.392; -2.4076; 0.556938; 1.59789; -2.4107; 0.522034; 0.0102588; 0.116309; -0.000634591; 0.0234123
9.408; -2.40744; 0.558806; 1.59916; -2.4107; 0.522034; 0.0101007; 0.116718; -0.00070277; 0.0247723
9.424; -2.40728; 0.56068; 1.59789; -2.4107; 0.522034; 0.0102369; 0.117118; -0.000699495; 0.0258068
9.44; -2.40711; 0.56256; 1.59916; -2.4107; 0.522034; 0.0100769; 0.117555; -0.000751671; 0.026496
9.456; -2.40695; 0.564448; 1.59916; -2.4107; 0.522034; 0.0100647; 0.117984; -0.000761182; 0.0268313
9.472; -2.40681; 0.566344; 1.60926; -2.4107; 0.522034; 0.0088555; 0.118508; -0.00103091; 0.0267867
9.488; -2.40664; 0.568245; 1.59284; -2.4107; 0.522034; 0.0107909; 0.118769; -0.000581579; 0.0263763
9.504; -2.40649; 0.570153; 1.60295; -2.4107; 0.522034; 0.00957704; 0.119282; -0.000823767; 0.025613
9.52; -2.40632; 0.572067; 1.59789; -2.4107; 0.522034; 0.010169; 0.119624; -0.000664354; 0.0245104
9.536; -2.40616; 0.573987; 1.59916; -2.4107; 0.522034; 0.0100074; 0.120006; -0.00065451; 0.0230712
9.552; -2.406; 0.575912; 1.59663; -2.4107; 0.522034; 0.0103017; 0.120321; -0.000551118; 0.0213273
9.568; -2.40582; 0.577841; 1.58905; -2.4107; 0.522034; 0.0112077; 0.120549; -0.000352762; 0.0193206
9.584; -2.40566; 0.579776; 1.60168; -2.4107; 0.522034; 0.00967565; 0.120954; -0.000527604; 0.0170758
9.6; -2.40551; 0.581715; 1.60168; -2.4107; 0.522034; 0.00966843; 0.121188; -0.000451125; 0.0146006
9.616; -2.40535; 0.583657; 1.59916; -2.4107; 0.522034; 0.00996913; 0.121354; -0.000339161; 0.0119553
9.632; -2.40518; 0.5856; 1.59537; -2.4107; 0.522034; 0.0104253; 0.121462; -0.000225582; 0.00917856
9.648; -2.40502; 0.587545; 1.59537; -2.4107; 0.522034; 0.0104228; 0.121563; -0.000155098; 0.00631067
9.664; -2.40485; 0.589492; 1.59789; -2.4107; 0.522034; 0.0101142; 0.121644; -9.20144e-05; 0.00339473
9.68; -2.40469; 0.591438; 1.59789; -2.4107; 0.522034; 0.010114; 0.121651; -1.28417e-05; 0.000473776
9.696; -2.40455; 0.593386; 1.60926; -2.4107; 0.522034; 0.0087319; 0.12172; 9.27389e-05; -0.00240969
9.712; -2.40441; 0.595332; 1.60674; -2.4107; 0.522034; 0.00904237; 0.121614; 0.000187542; -0.00521586
9.728; -2.40425; 0.597275; 1.60168; -2.4107; 0.522034; 0.00966063; 0.12144; 0.000244279; -0.00790606
9.744; -2.4041; 0.599215; 1.60295; -2.4107; 0.522034; 0.00951261; 0.121285; 0.000336684; -0.0104683
9.76; -2.40394; 0.601152; 1.60042; -2.4107; 0.522034; 0.00982502; 0.121057; 0.000377384; -0.0127351
9.776; -2.40378; 0.603084; 1.59537; -2.4107; 0.522034; 0.0104424; 0.120767; 0.000365626; -0.0148767
9.792; -2.40363; 0.605014; 1.60421; -2.4107; 0.522034; 0.00938313; 0.120587; 0.000559878; -0.0167495
9.808; -2.40345; 0.606936; 1.58905; -2.4107; 0.522034; 0.0112152; 0.120137; 0.00033518; -0.0183576
9.824; -2.40327; 0.608853; 1.58779; -2.4107; 0.522034; 0.0113723; 0.119808; 0.000334105; -0.0196593
9.84; -2.40311; 0.610767; 1.60042; -2.4107; 0.522034; 0.00986782; 0.119612; 0.000611399; -0.0206321
9.856; -2.40295; 0.612675; 1.59916; -2.4107; 0.522034; 0.0100286; 0.119259; 0.000603921; -0.0212879
9.872; -2.40277; 0.614576; 1.59284; -2.4107; 0.522034; 0.0107892; 0.118848; 0.000476362; -0.0216044
9.888; -2.40262; 0.616474; 1.60168; -2.4107; 0.522034; 0.00974857; 0.118594; 0.00066537; -0.0215346
9.904; -2.40247; 0.618366; 1.60421; -2.4107; 0.522034; 0.00946023; 0.11828; 0.000705773; -0.0211141
9.92; -2.4023; 0.620252; 1.59537; -2.4107; 0.522034; 0.0105137; 0.117867; 0.000500201; -0.0203524
9.936; -2.40214; 0.622134; 1.60042; -2.4107; 0.522034; 0.00992715; 0.11761; 0.000570319; -0.0192458
9.952; -2.40198; 0.624011; 1.59916; -2.4107; 0.522034; 0.0100838; 0.117312; 0.000505617; -0.0178228
9.968; -2.40182; 0.625884; 1.59916; -2.4107; 0.522034; 0.0100911; 0.117055; 0.000456773; -0.016101
9.984; -2.40166; 0.627753; 1.60042; -2.4107; 0.522034; 0.00994991; 0.116842; 0.000416858; -0.0140672
10; -2.40149; 0.629619; 1.59411; -2.4107; 0.522034; 0.0106919; 0.116595; 0.000266189; -0.011418
10.016; -2.40133; 0.631483; 1.60295; -2.4107; 0.522034; 0.00966532; 0.116537; 0.000296677; -0.00922444
10.032; -2.40117; 0.633345; 1.59663; -2.4107; 0.522034; 0.0104039; 0.116366; 0.000173155; -0.00670078
10.048; -2.401; 0.635206; 1.59663; -2.4107; 0.522034; 0.0104055; 0.116303; 0.000101799; -0.00393943
10.064; -2.40084; 0.637067; 1.59789; -2.4107; 0.522034; 0.0102591; 0.116299; 2.93549e-05; -0.00108301
10.08; -2.40069; 0.63893; 1.608; -2.4107; 0.522034; 0.00908226; 0.116426; -6.85356e-05; 0.00184132
10.096; -2.4151; 0.648548; 1.59916; -2.41513; 0.648564; 0.00764429; 0.11773; -0.000135995; 0.00479377
10.112; -2.415; 0.650434; 1.60674; -2.41513; 0.648564; 0.00674739; 0.117907; -0.000276647; 0.00769405
10.128; -2.41486; 0.652322; 1.59284; -2.41513; 0.648564; 0.00838126; 0.117971; -0.000232212; 0.0105315
10.144; -2.41475; 0.654214; 1.60547; -2.41513; 0.648564; 0.00688312; 0.118279; -0.000459694; 0.013251
10.16; -2.41464; 0.65611; 1.60295; -2.41513; 0.648564; 0.00717377; 0.118514; -0.000508973; 0.0158252
10.176; -2.41452; 0.658011; 1.60168; -2.41513; 0.648564; 0.00731446; 0.118797; -0.000562644; 0.0182099
10.192; -2.4144; 0.659917; 1.60168; -2.41513; 0.648564; 0.00730439; 0.119123; -0.000629336; 0.0203684
10.208; -2.41429; 0.661829; 1.60295; -2.41513; 0.648564; 0.00714246; 0.119488; -0.000716154; 0.022267
10.224; -2.41417; 0.663746; 1.59789; -2.41513; 0.648564; 0.00773577; 0.119831; -0.000645382; 0.0238104
10.24; -2.41404; 0.66567; 1.59537; -2.41513; 0.648564; 0.00802855; 0.120215; -0.000620416; 0.0252437
10.256; -2.41392; 0.6676; 1.59916; -2.41513; 0.648564; 0.00756106; 0.120664; -0.000742307; 0.026166
10.272; -2.41381; 0.669539; 1.60926; -2.41513; 0.648564; 0.00632488; 0.121162; -0.00102991; 0.0267608
10.288; -2.4137; 0.671484; 1.60421; -2.41513; 0.648564; 0.00692268; 0.121556; -0.000894017; 0.0267457
10.304; -2.41357; 0.673434; 1.59411; -2.41513; 0.648564; 0.00814094; 0.121897; -0.000607446; 0.0260559
10.32; -2.41344; 0.67539; 1.59032; -2.41513; 0.648564; 0.00859488; 0.122272; -0.000495712; 0.0253925
10.336; -2.41333; 0.677355; 1.60547; -2.41513; 0.648564; 0.00672699; 0.12278; -0.000849686; 0.0244928
10.352; -2.41321; 0.679325; 1.60042; -2.41513; 0.648564; 0.00733631; 0.123114; -0.000684032; 0.0230832
10.368; -2.41308; 0.681299; 1.59158; -2.41513; 0.648564; 0.00841749; 0.123386; -0.000444337; 0.0213772
10.384; -2.41297; 0.68328; 1.60421; -2.41513; 0.648564; 0.00684794; 0.123792; -0.000647128; 0.0193597
10.4; -2.41285; 0.685264; 1.60042; -2.41513; 0.648564; 0.00730889; 0.124039; -0.000506879; 0.017105
10.416; -2.41274; 0.687253; 1.60168; -2.41513; 0.648564; 0.00714497; 0.124282; -0.000452156; 0.014634
10.432; -2.41263; 0.689245; 1.60421; -2.41513; 0.648564; 0.00682456; 0.124492; -0.000400622; 0.0119851
10.448; -2.41251; 0.691238; 1.60042; -2.41513; 0.648564; 0.00729191; 0.124612; -0.000272604; 0.00919922
10.464; -2.41239; 0.693233; 1.59789; -2.41513; 0.648564; 0.00760396; 0.124694; -0.000171112; 0.00631292
10.48; -2.41226; 0.695229; 1.59663; -2.41513; 0.648564; 0.00776008; 0.124738; -8.6308e-05; 0.00333996
10.496; -2.41214; 0.697225; 1.59916; -2.41513; 0.648564; 0.00744476; 0.124763; -1.01419e-05; 0.000357498
10.512; -2.41204; 0.699222; 1.60674; -2.41513; 0.648564; 0.00650047; 0.124774; 9.3035e-05; -0.00258747
10.528; -2.41191; 0.701215; 1.59284; -2.41513; 0.648564; 0.00823543; 0.124585; 0.000120536; -0.00546664
10.544; -2.4118; 0.703208; 1.60674; -2.41513; 0.648564; 0.00650835; 0.124555; 0.000295854; -0.00822823
10.56; -2.41168; 0.705197; 1.59663; -2.41513; 0.648564; 0.00777114; 0.12431; 0.00028004; -0.010837
10.576; -2.41156; 0.707183; 1.59916; -2.41513; 0.648564; 0.00746307; 0.124118; 0.000374794; -0.0132113
10.592; -2.41145; 0.709165; 1.60295; -2.41513; 0.648564; 0.00700058; 0.123899; 0.000494241; -0.0153672
10.608; -2.41134; 0.711144; 1.60674; -2.41513; 0.648564; 0.00654095; 0.123649; 0.000620596; -0.0172599
10.624; -2.41123; 0.713117; 1.60042; -2.41513; 0.648564; 0.0073307; 0.123303; 0.000558812; -0.0188575
10.64; -2.41112; 0.715085; 1.60674; -2.41513; 0.648564; 0.00656337; 0.123025; 0.00072352; -0.0201224
10.656; -2.41099; 0.717046; 1.59284; -2.41513; 0.648564; 0.00827951; 0.122585; 0.00046427; -0.0210559
10.672; -2.41089; 0.719004; 1.61053; -2.41513; 0.648564; 0.00612426; 0.122366; 0.000859121; -0.0216126
10.688; -2.41076; 0.720954; 1.59284; -2.41513; 0.648564; 0.00829484; 0.12189; 0.000481303; -0.0218284
10.704; -2.41063; 0.7229; 1.59663; -2.41513; 0.648564; 0.00784185; 0.121574; 0.000559831; -0.0216644
10.72; -2.41051; 0.72484; 1.59916; -2.41513; 0.648564; 0.00754428; 0.121255; 0.0005997; -0.0211391
10.736; -2.41039; 0.726775; 1.59916; -2.41513; 0.648564; 0.00755351; 0.12093; 0.000576912; -0.0203359
10.752; -2.41027; 0.728705; 1.59916; -2.41513; 0.648564; 0.00756213; 0.120626; 0.000538481; -0.0189812
10.768; -2.41018; 0.730632; 1.61305; -2.41513; 0.648564; 0.00589721; 0.12044; 0.000739088; -0.0174802
10.784; -2.41005; 0.732553; 1.59663; -2.41513; 0.648564; 0.00788055; 0.120076; 0.000405021; -0.0156736
10.8; -2.40993; 0.734471; 1.60168; -2.41513; 0.648564; 0.00728048; 0.119896; 0.000420067; -0.0135954
10.816; -2.40982; 0.736387; 1.60168; -2.41513; 0.648564; 0.00728606; 0.119716; 0.000348847; -0.0112904
10.832; -2.40969; 0.738299; 1.59663; -2.41513; 0.648564; 0.00789448; 0.119537; 0.000227142; -0.00878997
10.848; -2.40957; 0.74021; 1.59789; -2.41513; 0.648564; 0.00774614; 0.119449; 0.000166012; -0.00612478
10.864; -2.40945; 0.742121; 1.60168; -2.41513; 0.648564; 0.0072951; 0.119423; 0.000103988; -0.00336556
10.88; -2.40933; 0.744032; 1.59916; -2.41513; 0.648564; 0.007597; 0.119397; 1.41797e-05; -0.000499828
10.896; -2.40921; 0.745942; 1.59916; -2.41513; 0.648564; 0.0075959; 0.119435; -6.85509e-05; 0.00241639
10.912; -2.40908; 0.747854; 1.59663; -2.41513; 0.648564; 0.00789541; 0.119501; -0.000137801; 0.00533266
10.928; -2.40896; 0.749769; 1.59916; -2.41513; 0.648564; 0.00758976; 0.119652; -0.000232766; 0.00820489
10.944; -2.40884; 0.751686; 1.60168; -2.41513; 0.648564; 0.00728202; 0.119846; -0.000339584; 0.0109906
10.96; -2.40871; 0.753607; 1.59411; -2.41513; 0.648564; 0.00818502; 0.120006; -0.000318264; 0.0136517
10.976; -2.40859; 0.755531; 1.59789; -2.41513; 0.648564; 0.0077232; 0.120295; -0.000437905; 0.0161559
10.992; -2.40847; 0.757461; 1.60295; -2.41513; 0.648564; 0.0071058; 0.120628; -0.00059377; 0.0184618
11.008; -2.40836; 0.759397; 1.60295; -2.41513; 0.648564; 0.00709497; 0.120964; -0.000676616; 0.0210377
11.024; -2.40824; 0.761338; 1.60042; -2.41513; 0.648564; 0.00738995; 0.121304; -0.000662083; 0.0223425
11.04; -2.40812; 0.763284; 1.59663; -2.41513; 0.648564; 0.00783972; 0.121656; -0.000615901; 0.0238343
11.056; -2.40802; 0.765239; 1.61305; -2.41513; 0.648564; 0.00582412; 0.122168; -0.00105668; 0.0249916
11.072; -2.4079; 0.767198; 1.59663; -2.41513; 0.648564; 0.00781869; 0.12247; -0.000667863; 0.0258451
11.088; -2.40778; 0.769165; 1.59789; -2.41513; 0.648564; 0.00765255; 0.122901; -0.000714731; 0.0263689
11.104; -2.41955; 0.775087; 1.58653; -2.41957; 0.775094; 0.00716755; 0.123853; -0.000417459; 0.0265368
11.12; -2.41946; 0.777077; 1.60168; -2.41957; 0.775094; 0.00527643; 0.124368; -0.000813593; 0.0263318
11.136; -2.41937; 0.779073; 1.59663; -2.41957; 0.775094; 0.00589409; 0.124753; -0.000666591; 0.0257959
11.152; -2.41928; 0.781076; 1.59916; -2.41957; 0.775094; 0.00556759; 0.125166; -0.000706917; 0.0249185
11.168; -2.4192; 0.783085; 1.60168; -2.41957; 0.775094; 0.00523964; 0.125559; -0.000732824; 0.0237177
11.184; -2.4191; 0.785099; 1.59537; -2.41957; 0.775094; 0.0060238; 0.125879; -0.000546013; 0.0222164
11.2; -2.41899; 0.787117; 1.58905; -2.41957; 0.775094; 0.00681273; 0.126165; -0.000372985; 0.0204282
11.216; -2.41891; 0.789142; 1.60168; -2.41957; 0.775094; 0.00520948; 0.126535; -0.000567614; 0.0183707
11.232; -2.41882; 0.79117; 1.59916; -2.41957; 0.775094; 0.00552185; 0.126778; -0.00045524; 0.016047
11.248; -2.41872; 0.793202; 1.59158; -2.41957; 0.775094; 0.00647798; 0.126952; -0.000283939; 0.0136603
11.264; -2.41863; 0.795237; 1.60168; -2.41957; 0.775094; 0.00518937; 0.127186; -0.000339396; 0.0109845
11.28; -2.41853; 0.797273; 1.59032; -2.41957; 0.775094; 0.00663234; 0.12725; -0.000160168; 0.0082045
11.296; -2.41844; 0.799311; 1.60042; -2.41957; 0.775094; 0.0053436; 0.127396; -0.000157929; 0.00532943
11.312; -2.41836; 0.80135; 1.60042; -2.41957; 0.775094; 0.00534271; 0.127426; -5.55951e-05; 0.00187609
11.328; -2.41827; 0.803388; 1.59916; -2.41957; 0.775094; 0.00550391; 0.127411; 1.53273e-05; -0.000540281
11.344; -2.41818; 0.805426; 1.60042; -2.41957; 0.775094; 0.0053446; 0.127362; 0.000101865; -0.0034375
11.36; -2.41811; 0.807463; 1.608; -2.41957; 0.775094; 0.00438288; 0.1273; 0.000231101; -0.00620891
11.376; -2.41801; 0.809496; 1.59284; -2.41957; 0.775094; 0.00631504; 0.127077; 0.000195892; -0.00888424
11.392; -2.41795; 0.811528; 1.61432; -2.41957; 0.775094; 0.00359291; 0.127001; 0.000495665; -0.0113823
11.408; -2.41785; 0.813555; 1.59284; -2.41957; 0.775094; 0.00632388; 0.126676; 0.000301808; -0.0136878
11.424; -2.41777; 0.815579; 1.60168; -2.41957; 0.775094; 0.00521135; 0.126475; 0.000486315; -0.0157395
11.44; -2.41768; 0.817597; 1.59663; -2.41957; 0.775094; 0.00585756; 0.126166; 0.00045287; -0.0175252
11.456; -2.41759; 0.819612; 1.60295; -2.41957; 0.775094; 0.00507039; 0.125897; 0.000611346; -0.0190083
11.472; -2.41752; 0.821621; 1.608; -2.41957; 0.775094; 0.00444623; 0.125598; 0.000751035; -0.0201778
11.488; -2.41742; 0.823624; 1.59158; -2.41957; 0.775094; 0.006515; 0.125171; 0.000437799; -0.0210626
11.504; -2.41733; 0.825622; 1.60168; -2.41957; 0.775094; 0.00526046; 0.124885; 0.00066608; -0.0215576
11.52; -2.41725; 0.827615; 1.60295; -2.41957; 0.775094; 0.00511387; 0.124545; 0.000698215; -0.0217092
11.536; -2.41716; 0.829601; 1.59537; -2.41957; 0.775094; 0.0060661; 0.124158; 0.000528761; -0.0215144
11.552; -2.41706; 0.831583; 1.59663; -2.41957; 0.775094; 0.00591793; 0.12383; 0.000541677; -0.0209619
11.568; -2.41698; 0.833559; 1.60168; -2.41957; 0.775094; 0.0053021; 0.123538; 0.000619543; -0.0200514
11.584; -2.41688; 0.835531; 1.59663; -2.41957; 0.775094; 0.00593398; 0.123209; 0.000485369; -0.0187829
11.6; -2.4168; 0.837498; 1.60295; -2.41957; 0.775094; 0.00516457; 0.122968; 0.000553812; -0.0172194
11.616; -2.41672; 0.839462; 1.60295; -2.41957; 0.775094; 0.00517247; 0.122723; 0.00049399; -0.0153594
11.632; -2.41662; 0.841421; 1.59789; -2.41957; 0.775094; 0.00579822; 0.122483; 0.000358553; -0.0132283
11.648; -2.41654; 0.843378; 1.60042; -2.41957; 0.775094; 0.00549391; 0.122324; 0.000321593; -0.0108524
11.664; -2.41647; 0.845335; 1.61305; -2.41957; 0.775094; 0.00395396; 0.122251; 0.000349558; -0.0082674
11.68; -2.41637; 0.847287; 1.59158; -2.41957; 0.775094; 0.00657987; 0.12205; 0.000114814; -0.00552375
11.696; -2.41628; 0.84924; 1.59916; -2.41957; 0.775094; 0.00565588; 0.122054; 7.51326e-05; -0.00264839
11.712; -2.41619; 0.851193; 1.59916; -2.41957; 0.775094; 0.00565574; 0.122059; -8.72068e-06; 0.0003074
11.728; -2.4161; 0.853147; 1.59916; -2.41957; 0.775094; 0.00565425; 0.122111; -9.35873e-05; 0.00329891
11.744; -2.41601; 0.855102; 1.60168; -2.41957; 0.775094; 0.00534265; 0.122225; -0.000192754; 0.00623846
11.76; -2.41592; 0.85706; 1.60168; -2.41957; 0.775094; 0.00533808; 0.122373; -0.000286063; 0.00925839
11.776; -2.41584; 0.859022; 1.60168; -2.41957; 0.775094; 0.00533212; 0.122566; -0.000372515; 0.0120564
11.792; -2.41576; 0.860986; 1.60295; -2.41957; 0.775094; 0.00516971; 0.122808; -0.000473565; 0.0147243
11.808; -2.41566; 0.862955; 1.59789; -2.41957; 0.775094; 0.00578269; 0.123056; -0.00046634; 0.0172049
11.824; -2.41557; 0.864929; 1.59916; -2.41957; 0.775094; 0.00561842; 0.123374; -0.000551958; 0.0194563
11.84; -2.41547; 0.866908; 1.59032; -2.41957; 0.775094; 0.00670237; 0.123663; -0.00041885; 0.0214554
11.856; -2.41538; 0.868894; 1.60168; -2.41957; 0.775094; 0.00528467; 0.124102; -0.000715364; 0.0231526
11.872; -2.41529; 0.870885; 1.59663; -2.41957; 0.775094; 0.0059015; 0.124466; -0.000633797; 0.0245268
11.888; -2.41521; 0.872884; 1.60295; -2.41957; 0.775094; 0.00510211; 0.12491; -0.000823221; 0.025596
11.904; -2.41513; 0.874889; 1.60421; -2.41957; 0.775094; 0.00493025; 0.125338; -0.000879952; 0.0263249
11.92; -2.41503; 0.8769; 1.59411; -2.41957; 0.775094; 0.00618658; 0.125709; -0.000622656; 0.0267083
11.936; -2.41494; 0.878919; 1.60168; -2.41957; 0.775094; 0.00522048; 0.126179; -0.000824535; 0.026686
11.952; -2.41485; 0.880944; 1.59663; -2.41957; 0.775094; 0.00584707; 0.126572; -0.000679955; 0.026313
11.968; -2.41476; 0.882976; 1.59916; -2.41957; 0.775094; 0.00551568; 0.126996; -0.000725664; 0.0255793
11.984; -2.41467; 0.885014; 1.59663; -2.41957; 0.775094; 0.00582635; 0.127374; -0.00063401; 0.024535
12; -2.41459; 0.887059; 1.60547; -2.41957; 0.775094; 0.0046869; 0.127795; -0.000811013; 0.023378
12.016; -2.4145; 0.889109; 1.59789; -2.41957; 0.775094; 0.00564588; 0.128103; -0.000589184; 0.021737
12.032; -2.41442; 0.891164; 1.60168; -2.41957; 0.775094; 0.00515076; 0.128436; -0.000602073; 0.019486
12.048; -2.41434; 0.893223; 1.60042; -2.41957; 0.775094; 0.00530482; 0.128705; -0.000511016; 0.0172446
12.064; -2.41426; 0.895286; 1.60421; -2.41957; 0.775094; 0.00480915; 0.128961; -0.000494094; 0.0147814
12.08; -2.41418; 0.897353; 1.60295; -2.41957; 0.775094; 0.00496579; 0.129149; -0.000390709; 0.0121481
12.096; -2.41411; 0.899422; 1.60926; -2.41957; 0.775094; 0.00414424; 0.129328; -0.000361717; 0.00939871
12.112; -2.42399; 0.901624; 1.59916; -2.424; 0.901624; 0.00398482; 0.129403; -0.00018524; 0.00652963
12.128; -2.42392; 0.903695; 1.59789; -2.424; 0.901624; 0.00414671; 0.129456; -9.7751e-05; 0.00360638
12.144; -2.42385; 0.905766; 1.59537; -2.424; 0.901624; 0.00447348; 0.129456; -1.66002e-05; 0.000675436
12.16; -2.4238; 0.907838; 1.60547; -2.424; 0.901624; 0.00316632; 0.129459; 7.69898e-05; -0.00221929
12.176; -2.42375; 0.909908; 1.60547; -2.424; 0.901624; 0.00316912; 0.129378; 0.000174696; -0.00503574
12.192; -2.42369; 0.911976; 1.60042; -2.424; 0.901624; 0.00382644; 0.129237; 0.000229206; -0.00773471
12.208; -2.42362; 0.91404; 1.59537; -2.424; 0.901624; 0.00448342; 0.129051; 0.000252578; -0.010277
12.224; -2.42357; 0.916103; 1.60926; -2.424; 0.901624; 0.00269773; 0.128898; 0.000488813; -0.0127011
12.24; -2.42353; 0.918161; 1.608; -2.424; 0.901624; 0.00286929; 0.12866; 0.000546294; -0.0146771
12.256; -2.42347; 0.920216; 1.60421; -2.424; 0.901624; 0.00336568; 0.128383; 0.000554071; -0.0165757
12.272; -2.42342; 0.922265; 1.60168; -2.424; 0.901624; 0.00369899; 0.128083; 0.000561458; -0.0181715
12.288; -2.42335; 0.924309; 1.60042; -2.424; 0.901624; 0.00387; 0.127767; 0.000576706; -0.0194614
12.304; -2.42329; 0.926348; 1.60042; -2.424; 0.901624; 0.00387977; 0.127437; 0.000610498; -0.0206017
12.32; -2.42322; 0.928381; 1.59663; -2.424; 0.901624; 0.00437152; 0.127079; 0.00055393; -0.0214361
12.336; -2.42315; 0.930409; 1.59411; -2.424; 0.901624; 0.00470053; 0.126725; 0.000498682; -0.0213906
12.352; -2.42308; 0.932431; 1.59916; -2.424; 0.901624; 0.00406986; 0.126406; 0.000605099; -0.0213295
12.368; -2.42302; 0.934449; 1.60295; -2.424; 0.901624; 0.00360157; 0.126086; 0.000672147; -0.0208987
12.384; -2.42297; 0.936461; 1.60421; -2.424; 0.901624; 0.00345308; 0.125768; 0.000673496; -0.0201485
12.4; -2.42292; 0.938469; 1.60674; -2.424; 0.901624; 0.00314631; 0.125471; 0.00068529; -0.0190591
12.416; -2.42286; 0.940472; 1.60295; -2.424; 0.901624; 0.00363084; 0.125176; 0.000567723; -0.0176519
12.432; -2.42278; 0.942469; 1.59158; -2.424; 0.901624; 0.00505893; 0.124872; 0.000331458; -0.0159465
12.448; -2.42271; 0.944464; 1.59537; -2.424; 0.901624; 0.00459119; 0.124667; 0.000343103; -0.0139603
12.464; -2.42265; 0.946456; 1.60547; -2.424; 0.901624; 0.00333769; 0.124519; 0.000406871; -0.0117283
12.48; -2.42258; 0.948446; 1.59537; -2.424; 0.901624; 0.00459946; 0.12433; 0.000228968; -0.00931635
12.496; -2.42252; 0.950434; 1.60547; -2.424; 0.901624; 0.0033466; 0.124262; 0.000233489; -0.0067305
12.512; -2.42247; 0.952421; 1.60674; -2.424; 0.901624; 0.00319194; 0.124202; 0.000143858; -0.00400094
12.528; -2.42242; 0.954408; 1.60547; -2.424; 0.901624; 0.00334948; 0.124179; 4.10467e-05; -0.0011832
12.544; -2.42235; 0.956395; 1.59789; -2.424; 0.901624; 0.00428979; 0.124177; -4.56536e-05; 0.00168432
12.56; -2.42228; 0.958383; 1.59789; -2.424; 0.901624; 0.00428781; 0.12425; -0.000123676; 0.00456283
12.576; -2.42222; 0.960373; 1.59916; -2.424; 0.901624; 0.00412749; 0.124375; -0.000210938; 0.00743546
12.592; -2.42217; 0.962366; 1.608; -2.424; 0.901624; 0.00302151; 0.12457; -0.000380862; 0.0102325
12.608; -2.42211; 0.964362; 1.60421; -2.424; 0.901624; 0.00348664; 0.124764; -0.000431501; 0.0129089
12.624; -2.42204; 0.966362; 1.59411; -2.424; 0.901624; 0.00474145; 0.12497; -0.000360016; 0.0154426
12.64; -2.42198; 0.968366; 1.60421; -2.424; 0.901624; 0.00346887; 0.125296; -0.000594483; 0.0177847
12.656; -2.42193; 0.970376; 1.60674; -2.424; 0.901624; 0.00314087; 0.125623; -0.00071596; 0.0199121
12.672; -2.42185; 0.972391; 1.59284; -2.424; 0.901624; 0.00487831; 0.125916; -0.000480688; 0.0218005
12.688; -2.42178; 0.974412; 1.59663; -2.424; 0.901624; 0.00439145; 0.126308; -0.000604697; 0.0234007
12.704; -2.42172; 0.976439; 1.59916; -2.424; 0.901624; 0.00406113; 0.126714; -0.000700662; 0.024698
12.72; -2.42165; 0.978473; 1.59537; -2.424; 0.901624; 0.00453118; 0.127108; -0.000631026; 0.0256754
12.736; -2.42158; 0.980514; 1.59916; -2.424; 0.901624; 0.00403758; 0.127544; -0.000743773; 0.0262176
12.752; -2.42151; 0.982561; 1.59537; -2.424; 0.901624; 0.00451039; 0.127954; -0.000655292; 0.0266628
12.768; -2.42143; 0.984615; 1.59158; -2.424; 0.901624; 0.0049864; 0.128361; -0.00055198; 0.0265559
12.784; -2.42136; 0.986676; 1.59663; -2.424; 0.901624; 0.00432698; 0.128802; -0.000674637; 0.0261072
12.8; -2.42131; 0.988744; 1.608; -2.424; 0.901624; 0.00284739; 0.129248; -0.000941685; 0.0252999
12.816; -2.42125; 0.990817; 1.59916; -2.424; 0.901624; 0.00397912; 0.129604; -0.000685461; 0.0241622
12.832; -2.42119; 0.992897; 1.60168; -2.424; 0.901624; 0.00364047; 0.129977; -0.000700969; 0.0226868
12.848; -2.42112; 0.994982; 1.59663; -2.424; 0.901624; 0.0042885; 0.130292; -0.000540397; 0.0209124
12.864; -2.42106; 0.997071; 1.59916; -2.424; 0.901624; 0.00395078; 0.130603; -0.000534303; 0.0188339
12.88; -2.42097; 0.999164; 1.584; -2.424; 0.901624; 0.00592643; 0.130793; -0.000218224; 0.0165265
12.896; -2.42089; 1.00126; 1.59411; -2.424; 0.901624; 0.00459923; 0.13107; -0.000326757; 0.014016
12.912; -2.42083; 1.00336; 1.59916; -2.424; 0.901624; 0.00393178; 0.131273; -0.000321562; 0.0113349
12.928; -2.42078; 1.00546; 1.60421; -2.424; 0.901624; 0.0032639; 0.131428; -0.000284868; 0.00852217
12.944; -2.42071; 1.00757; 1.59916; -2.424; 0.901624; 0.00392536; 0.1315; -0.000159474; 0.00562137
12.96; -2.42068; 1.00967; 1.61179; -2.424; 0.901624; 0.00226229; 0.131581; -0.000109501; 0.00266971
12.976; -2.42063; 1.01178; 1.60421; -2.424; 0.901624; 0.00325961; 0.131556; 9.25404e-06; -0.000276846
12.992; -2.42057; 1.01388; 1.60421; -2.424; 0.901624; 0.0032613; 0.131505; 0.000105741; -0.00316337
13.008; -2.42051; 1.01598; 1.59789; -2.424; 0.901624; 0.00409416; 0.131395; 0.00014825; -0.00546948
13.024; -2.42044; 1.01809; 1.59789; -2.424; 0.901624; 0.00409792; 0.131256; 0.000234619; -0.00865591
13.04; -2.42039; 1.02018; 1.60295; -2.424; 0.901624; 0.00344044; 0.131096; 0.000360094; -0.0111962
13.056; -2.42032; 1.02228; 1.59663; -2.424; 0.901624; 0.00427394; 0.130855; 0.000349894; -0.0135403
13.072; -2.42025; 1.02437; 1.59537; -2.424; 0.901624; 0.00444538; 0.130599; 0.000384496; -0.0156445
13.088; -2.42018; 1.02645; 1.59663; -2.424; 0.901624; 0.00428762; 0.130326; 0.000451; -0.0174529
13.104; -2.42013; 1.02853; 1.60421; -2.424; 0.901624; 0.00330992; 0.130051; 0.000633899; -0.0189639
13.12; -2.42843; 1.02816; 1.60421; -2.42844; 1.02815; 0.00217153; 0.129391; 0.000674113; -0.0201669
13.136; -2.42839; 1.03022; 1.60168; -2.42844; 1.02815; 0.0025088; 0.129049; 0.000649699; -0.0210274
13.152; -2.42833; 1.03228; 1.59158; -2.42844; 1.02815; 0.00381989; 0.128672; 0.000447613; -0.0215347
13.168; -2.42828; 1.03433; 1.59789; -2.42844; 1.02815; 0.00301655; 0.128347; 0.000587337; -0.0216689
13.184; -2.42825; 1.03638; 1.60547; -2.42844; 1.02815; 0.00205563; 0.128023; 0.000743632; -0.0214357
13.2; -2.42821; 1.03843; 1.60421; -2.42844; 1.02815; 0.00222849; 0.127687; 0.000696863; -0.0208475
13.216; -2.42817; 1.04046; 1.59916; -2.42844; 1.02815; 0.00288266; 0.127356; 0.000564857; -0.0199109
13.232; -2.42814; 1.0425; 1.61053; -2.42844; 1.02815; 0.00144655; 0.127081; 0.00074251; -0.0186791
13.248; -2.42808; 1.04452; 1.59032; -2.42844; 1.02815; 0.00401977; 0.126754; 0.000331773; -0.0169949
13.264; -2.42804; 1.04655; 1.60168; -2.42844; 1.02815; 0.00258603; 0.12655; 0.000467785; -0.0151398
13.28; -2.428; 1.04857; 1.60295; -2.42844; 1.02815; 0.00243287; 0.126345; 0.000418373; -0.0130082
13.296; -2.42794; 1.05059; 1.59537; -2.42844; 1.02815; 0.00339454; 0.126152; 0.000261897; -0.0106562
13.312; -2.42791; 1.05261; 1.608; -2.42844; 1.02815; 0.00180595; 0.126047; 0.000321606; -0.00864049
13.328; -2.42786; 1.05462; 1.59789; -2.42844; 1.02815; 0.00308194; 0.125935; 0.00014751; -0.00544215
13.344; -2.42782; 1.05664; 1.59789; -2.42844; 1.02815; 0.00308308; 0.125892; 7.17665e-05; -0.00264772
13.36; -2.42777; 1.05865; 1.59789; -2.42844; 1.02815; 0.00308297; 0.125897; -6.81249e-06; 0.000251337
13.376; -2.42773; 1.06067; 1.60295; -2.42844; 1.02815; 0.0024452; 0.125961; -0.000101944; 0.00316969
13.392; -2.42767; 1.06268; 1.59537; -2.42844; 1.02815; 0.00339739; 0.126036; -0.000149187; 0.00607019
13.408; -2.42763; 1.0647; 1.60042; -2.42844; 1.02815; 0.0027563; 0.126194; -0.000264298; 0.00891893
13.424; -2.4276; 1.06672; 1.60674; -2.42844; 1.02815; 0.00195252; 0.126396; -0.000419738; 0.0116737
13.44; -2.42755; 1.06875; 1.59789; -2.42844; 1.02815; 0.00306383; 0.126603; -0.00038761; 0.0143003
13.456; -2.4275; 1.07078; 1.59789; -2.42844; 1.02815; 0.00305657; 0.126871; -0.000454002; 0.0167497
13.472; -2.42745; 1.07281; 1.59916; -2.42844; 1.02815; 0.00288769; 0.127178; -0.000538644; 0.0189869
13.488; -2.42739; 1.07485; 1.59284; -2.42844; 1.02815; 0.00368347; 0.127493; -0.000461794; 0.0209436
13.504; -2.42734; 1.0769; 1.59537; -2.42844; 1.02815; 0.00335247; 0.127864; -0.000556547; 0.022645
13.52; -2.4273; 1.07895; 1.60042; -2.42844; 1.02815; 0.00269498; 0.128264; -0.000712428; 0.0240414
13.536; -2.42724; 1.08101; 1.59537; -2.42844; 1.02815; 0.00333314; 0.12865; -0.000617338; 0.0251185
13.552; -2.42719; 1.08308; 1.59663; -2.42844; 1.02815; 0.00315994; 0.129068; -0.00066806; 0.0258527
13.568; -2.42716; 1.08515; 1.60547; -2.42844; 1.02815; 0.00200403; 0.129511; -0.000910148; 0.0262357
13.584; -2.42711; 1.08723; 1.59411; -2.42844; 1.02815; 0.00346639; 0.129901; -0.000613714; 0.0263248
13.6; -2.42705; 1.08931; 1.59411; -2.42844; 1.02815; 0.00345668; 0.130317; -0.000606661; 0.0260223
13.616; -2.42703; 1.0914; 1.60926; -2.42844; 1.02815; 0.0014654; 0.130761; -0.000976226; 0.0253659
13.632; -2.42698; 1.0935; 1.59916; -2.42844; 1.02815; 0.0027756; 0.131129; -0.000692207; 0.0244
13.648; -2.42693; 1.0956; 1.59663; -2.42844; 1.02815; 0.00309731; 0.131492; -0.000597232; 0.0231118
13.664; -2.42689; 1.09771; 1.59916; -2.42844; 1.02815; 0.00275534; 0.131844; -0.000610622; 0.0215241
13.68; -2.42684; 1.09983; 1.59663; -2.42844; 1.02815; 0.00308028; 0.132151; -0.000508187; 0.0196659
13.696; -2.42678; 1.10195; 1.59032; -2.42844; 1.02815; 0.00390936; 0.13241; -0.000342839; 0.0175617
13.712; -2.42674; 1.10407; 1.60168; -2.42844; 1.02815; 0.00239632; 0.132689; -0.000470663; 0.0152329
13.728; -2.42669; 1.1062; 1.59789; -2.42844; 1.02815; 0.00289361; 0.132883; -0.000344933; 0.0127258
13.744; -2.42664; 1.10833; 1.59663; -2.42844; 1.02815; 0.00305732; 0.133039; -0.000258683; 0.0100106
13.76; -2.42659; 1.11046; 1.59411; -2.42844; 1.02815; 0.00339066; 0.133149; -0.000171574; 0.00735954
13.776; -2.42654; 1.11259; 1.59789; -2.42844; 1.02815; 0.00288413; 0.133233; -0.000121525; 0.00448347
13.792; -2.4265; 1.11472; 1.59789; -2.42844; 1.02815; 0.00288344; 0.133258; -4.33345e-05; 0.00159876
13.808; -2.42645; 1.11685; 1.59916; -2.42844; 1.02815; 0.00271569; 0.133241; 3.63658e-05; -0.00128188
13.824; -2.42643; 1.11898; 1.60674; -2.42844; 1.02815; 0.00170816; 0.133192; 0.000147937; -0.00411439
13.84; -2.4264; 1.12111; 1.60926; -2.42844; 1.02815; 0.00137589; 0.133086; 0.000263838; -0.00685546
13.856; -2.42638; 1.12324; 1.60674; -2.42844; 1.02815; 0.00171755; 0.132931; 0.00034032; -0.00946489
13.872; -2.42633; 1.12536; 1.59537; -2.42844; 1.02815; 0.00323332; 0.132712; 0.000293402; -0.0119381
13.888; -2.42627; 1.12748; 1.59537; -2.42844; 1.02815; 0.00323889; 0.132485; 0.000348008; -0.0141599
13.904; -2.42623; 1.1296; 1.60168; -2.42844; 1.02815; 0.00241005; 0.132245; 0.000498509; -0.0161342
13.92; -2.4262; 1.13171; 1.60295; -2.42844; 1.02815; 0.00225218; 0.131963; 0.000573638; -0.0178358
13.936; -2.42617; 1.13382; 1.608; -2.42844; 1.02815; 0.00159685; 0.131664; 0.000715947; -0.0192351
13.952; -2.42613; 1.13592; 1.60042; -2.42844; 1.02815; 0.00260431; 0.131323; 0.000602231; -0.0203227
13.968; -2.4261; 1.13801; 1.60421; -2.42844; 1.02815; 0.00211792; 0.130995; 0.000704219; -0.0210676
13.984; -2.42606; 1.1401; 1.60042; -2.42844; 1.02815; 0.00262447; 0.130643; 0.000635513; -0.0214459
14; -2.426; 1.14219; 1.59411; -2.42844; 1.02815; 0.00345748; 0.130283; 0.000496716; -0.0213062
14.016; -2.42594; 1.14388; 1.59411; -2.42844; 1.02815; 0.00402336; 0.10601; 0.035368; -1.51708
14.032; -2.42585; 1.14557; 1.58274; -2.42844; 1.02815; 0.00523855; 0.105094; 0.000644285; -0.0539554
14.048; -2.42573; 1.14724; 1.55874; -2.42844; 1.02815; 0.00775534; 0.10463; -0.000231863; -0.0192257
14.064; -2.42561; 1.14892; 1.56; -2.42844; 1.02815; 0.00762591; 0.104894; 0.000171256; 0.0158618
14.08; -2.42544; 1.15061; 1.536; -2.42844; 1.02815; 0.0101693; 0.105495; 0.00177274; 0.0509257
14.096; -2.42526; 1.1523; 1.52337; -2.42844; 1.02815; 0.0115312; 0.105994; 0.00188541; 0.0397233
14.112; -2.42506; 1.15401; 1.51579; -2.42844; 1.02815; 0.0123716; 0.106584; 0.00234284; 0.0425489
14.128; -2.43287; 1.15469; 1.50063; -2.43288; 1.15468; 0.0130046; 0.107051; 0.00351364; 0.0499948
14.144; -2.43263; 1.1564; 1.48674; -2.43288; 1.15468; 0.0145287; 0.107311; 0.00237679; 0.0282084
14.16; -2.43236; 1.15812; 1.464; -2.43288; 1.15468; 0.017; 0.107282; 0.00220532; 0.0205712
14.176; -2.43208; 1.15984; 1.45768; -2.43288; 1.15468; 0.0177016; 0.107387; 0.00152403; 0.0134161
14.192; -2.43179; 1.16156; 1.45389; -2.43288; 1.15468; 0.0181196; 0.107415; 0.000698518; 0.00594802
14.208; -2.43147; 1.16327; 1.43495; -2.43288; 1.15468; 0.0201473; 0.107022; -0.000258712; -0.00189268
14.224; -2.43112; 1.16497; 1.41979; -2.43288; 1.15468; 0.0217457; 0.106563; -0.00134096; -0.00881253
14.24; -2.43074; 1.16667; 1.39958; -2.43288; 1.15468; 0.0238475; 0.105829; -0.00295097; -0.0170665
14.256; -2.43034; 1.16835; 1.38947; -2.43288; 1.15468; 0.0248411; 0.105175; -0.00466491; -0.0254445
14.272; -2.42994; 1.17002; 1.38442; -2.43288; 1.15468; 0.0252984; 0.104657; -0.00461305; -0.0244642
14.288; -2.42951; 1.17169; 1.37053; -2.43288; 1.15468; 0.0266746; 0.103924; -0.00471664; -0.0232357
14.304; -2.42906; 1.17334; 1.35916; -2.43288; 1.15468; 0.0277787; 0.103262; -0.00472383; -0.0219861
14.32; -2.42861; 1.17498; 1.35411; -2.43288; 1.15468; 0.0282273; 0.102789; -0.00455059; -0.0206706
14.336; -2.42812; 1.17661; 1.33137; -2.43288; 1.15468; 0.0304819; 0.101814; -0.00468787; -0.0192039
14.352; -2.42762; 1.17823; 1.31747; -2.43288; 1.15468; 0.0318202; 0.101097; -0.00458969; -0.0177287
14.368; -2.42709; 1.17984; 1.30484; -2.43288; 1.15468; 0.0330239; 0.100427; -0.00442125; -0.0162303
14.384; -2.42654; 1.18143; 1.28968; -2.43288; 1.15468; 0.0344743; 0.0996797; -0.00424848; -0.0147129
14.4; -2.42598; 1.18302; 1.28968; -2.43288; 1.15468; 0.034413; 0.0994674; -0.0038316; -0.0132692
14.416; -2.4254; 1.1846; 1.26442; -2.43288; 1.15468; 0.0368551; 0.0983782; -0.00372033; -0.0117607
14.432; -2.42478; 1.18616; 1.25053; -2.43288; 1.15468; 0.0381635; 0.097691; -0.00343369; -0.0103521
14.448; -2.42415; 1.18771; 1.23663; -2.43288; 1.15468; 0.039467; 0.097007; -0.00313128; -0.00901905
14.464; -2.4235; 1.18925; 1.22274; -2.43288; 1.15468; 0.0407612; 0.0963119; -0.00311527; -0.00858602
14.48; -2.42284; 1.19079; 1.21389; -2.43288; 1.15468; 0.041571; 0.0958397; -0.00251643; -0.00674881
14.496; -2.42216; 1.19231; 1.20632; -2.43288; 1.15468; 0.0422607; 0.0954292; -0.0022109; -0.00579488
14.512; -2.42145; 1.19382; 1.18358; -2.43288; 1.15468; 0.0443871; 0.0943646; -0.00201766; -0.00494759
14.528; -2.42073; 1.19533; 1.176; -2.43288; 1.15468; 0.0450725; 0.0939569; -0.00178412; -0.00428183
14.544; -2.41999; 1.19682; 1.16337; -2.43288; 1.15468; 0.0462297; 0.0933199; -0.00162467; -0.00376451
14.56; -2.41923; 1.1983; 1.152; -2.43288; 1.15468; 0.0472632; 0.0927337; -0.00151956; -0.00341374
14.576; -2.41846; 1.19978; 1.14316; -2.43288; 1.15468; 0.0480578; 0.0922604; -0.00147427; -0.00323471
14.592; -2.41766; 1.20124; 1.12168; -2.43288; 1.15468; 0.050003; 0.0911559; -0.00154499; -0.00320564
14.608; -2.41684; 1.20268; 1.10526; -2.43288; 1.15468; 0.0514661; 0.090269; -0.00168291; -0.00335002
14.624; -2.41601; 1.20412; 1.09768; -2.43288; 1.15468; 0.0521187; 0.0898176; -0.00187943; -0.00367156
14.64; -2.41515; 1.20554; 1.08253; -2.43288; 1.15468; 0.053439; 0.0889512; -0.00219594; -0.00413417
14.656; -2.4143; 1.20697; 1.08505; -2.43288; 1.15468; 0.0531737; 0.0890093; -0.0025265; -0.00478564
14.672; -2.41344; 1.20838; 1.07495; -2.43288; 1.15468; 0.0540224; 0.0883787; -0.00300037; -0.00554674
14.688; -2.41254; 1.20977; 1.05221; -2.43288; 1.15468; 0.0559594; 0.0870255; -0.00364445; -0.0063861
14.704; -2.41163; 1.21115; 1.03958; -2.43288; 1.15468; 0.056985; 0.0861939; -0.00432465; -0.00736044
14.72; -2.4107; 1.21252; 1.02568; -2.43288; 1.15468; 0.0580954; 0.0852592; -0.00510303; -0.00841529
14.736; -2.40975; 1.21386; 1.00674; -2.43288; 1.15468; 0.0596041; 0.0839911; -0.00601364; -0.00950594
14.752; -2.40879; 1.2152; 1.00421; -2.43288; 1.15468; 0.0597067; 0.0836683; -0.00683653; -0.0107465
14.768; -2.40781; 1.21651; 0.981474; -2.43288; 1.15468; 0.0614665; 0.0820993; -0.00793957; -0.0118754
14.784; -2.40681; 1.21781; 0.970105; -2.43288; 1.15468; 0.0622523; 0.0811857; -0.00896997; -0.0130919
14.8; -2.4058; 1.2191; 0.96; -2.43288; 1.15468; 0.0629092; 0.0803236; -0.0100185; -0.01431
14.816; -2.40478; 1.22036; 0.946105; -2.43288; 1.15468; 0.0638409; 0.0791944; -0.0111447; -0.0154569
14.832; -2.40374; 1.22161; 0.924632; -2.43288; 1.15468; 0.0653465; 0.0775666; -0.0112542; -0.0149226
14.848; -2.40269; 1.22284; 0.922105; -2.43288; 1.15468; 0.065345; 0.077141; -0.0123337; -0.0162683
14.864; -2.40163; 1.22405; 0.908211; -2.43288; 1.15468; 0.0662111; 0.0759701; -0.0124589; -0.0159677
14.88; -2.40056; 1.22525; 0.894316; -2.43288; 1.15468; 0.0670594; 0.0747927; -0.0125524; -0.0156346
14.896; -2.39948; 1.22643; 0.882947; -2.43288; 1.15468; 0.0677044; 0.0737809; -0.0125618; -0.0152871
14.912; -2.39839; 1.2276; 0.874105; -2.43288; 1.15468; 0.0681542; 0.0729405; -0.0124913; -0.0149302
14.928; -2.39728; 1.22875; 0.860211; -2.43288; 1.15468; 0.0689619; 0.0717549; -0.0124539; -0.0144721
14.944; -2.39616; 1.22987; 0.838737; -2.43288; 1.15468; 0.070287; 0.0700355; -0.0124782; -0.0138858
14.96; -2.39503; 1.23098; 0.836211; -2.43288; 1.15468; 0.0702686; 0.0696416; -0.0121972; -0.0135042
14.976; -2.3939; 1.23208; 0.823579; -2.43288; 1.15468; 0.0709504; 0.0685409; -0.0120169; -0.0129715
14.992; -2.39275; 1.23316; 0.809684; -2.43288; 1.15468; 0.0717068; 0.0673501; -0.0118143; -0.0124026
15.008; -2.3916; 1.23422; 0.803368; -2.43288; 1.15468; 0.071947; 0.0667054; -0.011485; -0.0119054
15.024; -2.39042; 1.23526; 0.776842; -2.43288; 1.15468; 0.0735092; 0.064595; -0.0113583; -0.0111656
15.04; -2.38925; 1.23628; 0.774316; -2.43288; 1.15468; 0.0734972; 0.064238; -0.0109314; -0.0106917
15.056; -2.38806; 1.23729; 0.760421; -2.43288; 1.15468; 0.074213; 0.0630492; -0.0106065; -0.0100894
15.072; -2.38685; 1.23827; 0.735158; -2.43288; 1.15468; 0.0756161; 0.0610044; -0.010368; -0.00937523
15.088; -2.38564; 1.23924; 0.730105; -2.43288; 1.15468; 0.0757646; 0.0604795; -0.00992195; -0.00888121
15.104; -2.38442; 1.2402; 0.723789; -2.43288; 1.15468; 0.0759933; 0.0598656; -0.0094863; -0.00838395
15.12; -2.3832; 1.24114; 0.711158; -2.43288; 1.15468; 0.0765977; 0.0587754; -0.00910478; -0.00784417
15.136; -2.43612; 1.27754; 0.693474; -2.43617; 1.27757; 0.0708917; 0.0616149; -0.00876451; -0.007285
15.152; -2.43498; 1.27851; 0.680842; -2.43617; 1.27757; 0.07153; 0.0606057; -0.00839599; -0.00680122
15.168; -2.43383; 1.27947; 0.670737; -2.43617; 1.27757; 0.0720103; 0.0597778; -0.00802969; -0.00637119
15.184; -2.43265; 1.28039; 0.641684; -2.43617; 1.27757; 0.0735915; 0.0575675; -0.00780273; -0.00582993
15.2; -2.43146; 1.2813; 0.631579; -2.43617; 1.27757; 0.0740496; 0.0567333; -0.00749165; -0.00548041
15.216; -2.43027; 1.28219; 0.622737; -2.43617; 1.27757; 0.0744329; 0.0559934; -0.00721604; -0.00518147
15.232; -2.42908; 1.28308; 0.617684; -2.43617; 1.27757; 0.0746033; 0.0555374; -0.0069711; -0.0049524
15.248; -2.42788; 1.28396; 0.607579; -2.43617; 1.27757; 0.0750518; 0.0547049; -0.00680727; -0.00473324
15.264; -2.42667; 1.28482; 0.596211; -2.43617; 1.27757; 0.0755615; 0.0537753; -0.00671007; -0.00455338
15.28; -2.42545; 1.28565; 0.577263; -2.43617; 1.27757; 0.0764594; 0.0522641; -0.00671226; -0.00437145
15.296; -2.42421; 1.28647; 0.563368; -2.43617; 1.27757; 0.07707; 0.0511284; -0.00676249; -0.00427154
15.312; -2.42297; 1.28726; 0.543158; -2.43617; 1.27757; 0.0779768; 0.0494936; -0.00691494; -0.00417476
15.328; -2.42171; 1.28804; 0.535579; -2.43617; 1.27757; 0.0782362; 0.0488339; -0.00709404; -0.00420986
15.344; -2.42045; 1.2888; 0.519158; -2.43617; 1.27757; 0.078836; 0.0474332; -0.011969; -0.00683961
15.36; -2.41919; 1.28955; 0.514105; -2.43617; 1.27757; 0.0789424; 0.0469596; -0.00826671; -0.00466872
15.376; -2.41792; 1.29028; 0.498947; -2.43617; 1.27757; 0.0795019; 0.0456796; -0.00894903; -0.00487665
15.392; -2.41664; 1.29101; 0.493895; -2.43617; 1.27757; 0.0795771; 0.045194; -0.00966653; -0.00520447
15.408; -2.41536; 1.29171; 0.477474; -2.43617; 1.27757; 0.0801401; 0.0437942; -0.0105213; -0.00544378
15.424; -2.41406; 1.29237; 0.452211; -2.43617; 1.27757; 0.0810367; 0.0416664; -0.0115015; -0.00558727
15.44; -2.41277; 1.29304; 0.449684; -2.43617; 1.27757; 0.080943; 0.0413656; -0.0124205; -0.00599495
15.456; -2.41147; 1.29367; 0.432; -2.43617; 1.27757; 0.0814461; 0.0398284; -0.0134865; -0.00621788
15.472; -2.41016; 1.2943; 0.426947; -2.43617; 1.27757; 0.0814139; 0.0393106; -0.014522; -0.00660654
15.488; -2.40885; 1.29491; 0.409263; -2.43617; 1.27757; 0.0818455; 0.037756; -0.015679; -0.00680085
15.504; -2.40755; 1.2955; 0.404211; -2.43617; 1.27757; 0.0817667; 0.0372272; -0.0167773; -0.00717675
15.52; -2.40623; 1.29607; 0.382737; -2.43617; 1.27757; 0.0822591; 0.0353469; -0.0180096; -0.00725049
15.536; -2.40491; 1.29662; 0.370105; -2.43617; 1.27757; 0.082392; 0.0341859; -0.0191842; -0.00744316
15.552; -2.40359; 1.29715; 0.36; -2.43617; 1.27757; 0.0824266; 0.0332361; -0.0191708; -0.00721593
15.568; -2.40227; 1.29767; 0.351158; -2.43617; 1.27757; 0.0824111; 0.0323939; -0.0191286; -0.0070076
15.584; -2.40095; 1.29816; 0.334737; -2.43617; 1.27757; 0.0826258; 0.0309298; -0.0191373; -0.00665644
15.6; -2.39963; 1.29863; 0.314526; -2.43617; 1.27757; 0.0829273; 0.0291539; -0.0191653; -0.00623495
15.616; -2.3983; 1.29908; 0.305684; -2.43617; 1.27757; 0.0828759; 0.028323; -0.0191236; -0.00603493
15.632; -2.39697; 1.29951; 0.290526; -2.43617; 1.27757; 0.0829896; 0.0269721; -0.0191281; -0.00571903
15.648; -2.39564; 1.29993; 0.280421; -2.43617; 1.27757; 0.0829521; 0.026044; -0.0191161; -0.00550564
15.664; -2.39432; 1.30032; 0.264; -2.43617; 1.27757; 0.083062; 0.0245955; -0.0191552; -0.00517783
15.68; -2.39299; 1.30071; 0.264; -2.43617; 1.27757; 0.082756; 0.0245128; -0.0191304; -0.00517112
15.696; -2.39166; 1.30107; 0.241263; -2.43617; 1.27757; 0.0829839; 0.0225492; -0.0192449; -0.00473533
15.712; -2.39034; 1.30142; 0.233684; -2.43617; 1.27757; 0.0828435; 0.0218461; -0.0193115; -0.00459678
15.728; -2.38901; 1.30175; 0.213474; -2.43617; 1.27757; 0.0829566; 0.0201; -0.019463; -0.00421913
15.744; -2.38769; 1.30206; 0.207158; -2.43617; 1.27757; 0.0827686; 0.0195098; -0.0195842; -0.00411607
15.76; -2.38636; 1.30235; 0.194526; -2.43617; 1.27757; 0.0826922; 0.0184004; -0.0197624; -0.00389355
15.776; -2.38504; 1.30262; 0.173053; -2.43617; 1.27757; 0.0827482; 0.0165647; -0.0200024; -0.00349644
15.792; -2.38372; 1.30288; 0.175579; -2.43617; 1.27757; 0.0823856; 0.0167168; -0.0200292; -0.0035533
15.808; -2.3824; 1.30312; 0.151579; -2.43617; 1.27757; 0.0824406; 0.0146857; -0.0201508; -0.00307805
15.824; -2.38109; 1.30334; 0.144; -2.43617; 1.27757; 0.0822261; 0.0140136; -0.020218; -0.00293168
15.84; -2.37977; 1.30355; 0.130105; -2.43617; 1.27757; 0.082088; 0.0128272; -0.0203069; -0.00265704
15.856; -2.37846; 1.30373; 0.109895; -2.43617; 1.27757; 0.0820039; 0.0111297; -0.0204087; -0.00225188
15.872; -2.37715; 1.3039; 0.104842; -2.43617; 1.27757; 0.0817316; 0.0106807; -0.0204678; -0.00215378
15.888; -2.37585; 1.30406; 0.0997895; -2.43617; 1.27757; 0.0814564; 0.0102348; -0.0205071; -0.00205322
15.904; -2.37455; 1.3042; 0.0770526; -2.43617; 1.27757; 0.0813397; 0.00835487; -0.020523; -0.00158449
15.92; -2.37325; 1.30432; 0.0682105; -2.43617; 1.27757; 0.0810844; 0.00761308; -0.0203697; -0.00139159
15.936; -2.37195; 1.30442; 0.0543158; -2.43617; 1.27757; 0.0810711; 0.00647968; -0.00695394; -0.00037808
15.952; -2.37066; 1.3045; 0.0353684; -2.43617; 1.27757; 0.0808793; 0.00493191; -0.0187503; -0.000663445
15.968; -2.36937; 1.30457; 0.0303158; -2.43617; 1.27757; 0.0806134; 0.00451441; -0.0181115; -0.000549233
15.984; -2.36808; 1.30463; 0.0214737; -2.43617; 1.27757; 0.0803707; 0.00379545; -0.0174696; -0.000375195
16; -2.3668; 1.30468; 0.00757895; -2.43617; 1.27757; 0.0801464; 0.00267635; -0.0168277; -0.000127539
16.016; -2.36514; 1.30471; 0.00252632; -2.43617; 1.27757; 0.103723; 0.00233089; 1.47273; 0.00372059
16.032; -2.36348; 1.30474; -0.00252632; -2.43617; 1.27757; 0.104039; 0.00180602; 0.0191476; -4.8373e-05
16.048; -2.36182; 1.30478; 0.00378947; -2.43617; 1.27757; 0.103772; 0.00246211; -0.0158888; -6.02106e-05
16.064; -2.36017; 1.30482; 0.00126316; -2.43617; 1.27757; 0.102961; 0.00219891; -0.0510447; -6.44775e-05
16.08; -2.35853; 1.30484; -0.00378947; -2.43617; 1.27757; 0.102235; 0.00168145; -0.0459787; 0.000174236
16.096; -2.35691; 1.30487; -0.00126316; -2.43617; 1.27757; 0.101586; 0.00194053; -0.0402513; 5.08438e-05
16.112; -2.35529; 1.30491; 0.00126316; -2.43617; 1.27757; 0.101035; 0.00219647; -0.0341215; -4.31008e-05
16.128; -2.35368; 1.30494; 0.00126316; -2.43617; 1.27757; 0.10059; 0.00219591; -0.0278418; -3.51686e-05
16.144; -2.38809; 1.36622; -0.00631579; -2.38812; 1.36627; 0.096132; 0.00848069; -0.0205876; 0.000130029
16.16; -2.38656; 1.36637; 0.00252632; -2.38812; 1.36627; 0.095841; 0.00932982; -0.0132637; -3.35082e-05
16.176; -2.38503; 1.36652; 0.00126316; -2.38812; 1.36627; 0.0957605; 0.00920863; -0.00576101; -7.27707e-06
16.192; -2.38349; 1.36667; 0.00252632; -2.38812; 1.36627; 0.0957787; 0.00932966; 0.00186408; 4.70926e-06
16.208; -2.38196; 1.36682; 0.00505263; -2.38812; 1.36627; 0.0959069; 0.00957237; 0.00950821; 4.80419e-05
16.224; -2.38042; 1.36697; 0.00378947; -2.38812; 1.36627; 0.096192; 0.00945225; 0.0170652; 6.46683e-05
16.24; -2.37887; 1.36712; -4.52763e-16; -2.38812; 1.36627; 0.0966179; 0.00908766; 0.0244275; -1.10599e-17
16.256; -2.37732; 1.36726; -0.00252632; -2.38812; 1.36627; 0.0971444; 0.00884228; 0.0314885; -7.95501e-05
16.272; -2.37576; 1.36741; 0.00505263; -2.38812; 1.36627; 0.097564; 0.00958074; 0.0305853; 0.000154538
16.288; -2.37419; 1.36754; -0.00757895; -2.38812; 1.36627; 0.0981465; 0.00834406; 0.029332; -0.00022231
16.304; -2.37261; 1.36768; -0.00378947; -2.38812; 1.36627; 0.0985568; 0.00871425; 0.0276663; -0.000104841
16.32; -2.37103; 1.36783; 0.00378947; -2.38812; 1.36627; 0.0988986; 0.00946251; 0.0256627; 9.72484e-05
16.336; -2.36944; 1.36799; 0.00884211; -2.38812; 1.36627; 0.0992229; 0.00996538; 0.0233351; 0.000206336
16.352; -2.36785; 1.36815; 0.00757895; -2.38812; 1.36627; 0.0995668; 0.00984255; 0.0207168; 0.000157014
16.368; -2.36625; 1.36829; -0.00631579; -2.38812; 1.36627; 0.0999795; 0.00845639; 0.0178421; -0.000112689
16.384; -2.36465; 1.36843; -4.48426e-16; -2.38812; 1.36627; 0.10016; 0.00908766; 0.0147501; -6.61434e-18
16.4; -2.36304; 1.36858; -4.48426e-16; -2.38812; 1.36627; 0.100344; 0.00908766; 0.011482; -5.14884e-18
16.416; -2.36143; 1.36873; 0.00631579; -2.38812; 1.36627; 0.100414; 0.00972205; 0.00808201; 5.10449e-05
16.432; -2.35983; 1.36888; 0.00126316; -2.38812; 1.36627; 0.100535; 0.00921466; 0.00459627; 5.80582e-06
16.448; -2.35822; 1.36903; 0.00378947; -2.38812; 1.36627; 0.100529; 0.00946868; 0.00107109; 4.05887e-06
16.464; -2.35661; 1.36917; -0.00631579; -2.38812; 1.36627; 0.10058; 0.0084526; -0.00244616; 1.54496e-05
16.48; -2.355; 1.36931; -0.00252632; -2.38812; 1.36627; 0.100453; 0.00883392; -0.00590873; 1.49273e-05
16.496; -2.3534; 1.36945; -0.00126316; -2.38812; 1.36627; 0.100293; 0.00896099; -0.0092696; 1.1709e-05
16.512; -2.35179; 1.36958; -0.00884211; -2.38812; 1.36627; 0.100158; 0.00820239; -0.012495; 0.000110485
16.528; -2.3502; 1.36973; -0.00126316; -2.38812; 1.36627; 0.0998447; 0.00896155; -0.0155317; 1.9619e-05
16.544; -2.3486; 1.36988; 0.00757895; -2.38812; 1.36627; 0.0994683; 0.0098418; -0.0183332; -0.000138949
16.56; -2.34702; 1.37002; -0.00378947; -2.38812; 1.36627; 0.0992401; 0.00871166; -0.0208539; 7.90258e-05
16.576; -2.34544; 1.37017; -0.00126316; -2.38812; 1.36627; 0.0988491; 0.00896281; -0.0230398; 2.91029e-05
16.592; -2.34386; 1.37031; -0.00252632; -2.38812; 1.36627; 0.0984625; 0.00883895; -0.0248642; 6.28151e-05
16.608; -2.34229; 1.37044; -0.00884211; -2.38812; 1.36627; 0.0980956; 0.00822063; -0.026298; 0.000232536
16.624; -2.34073; 1.37059; 0.00252632; -2.38812; 1.36627; 0.097559; 0.00933416; -0.0273027; -6.89753e-05
16.64; -2.33918; 1.37074; 0.00126316; -2.38812; 1.36627; 0.0971357; 0.00921037; -0.0271864; -3.43408e-05
16.656; -2.33763; 1.37088; -4.52329e-16; -2.38812; 1.36627; 0.0967213; 0.00908766; -0.0266239; 1.20428e-17
16.672; -2.33609; 1.37103; 0.00378947; -2.38812; 1.36627; 0.0962762; 0.00945257; -0.0256212; -9.70913e-05
16.688; -2.33455; 1.37118; -4.56232e-16; -2.38812; 1.36627; 0.0959243; 0.00908766; -0.0241898; 1.10362e-17
16.704; -2.33302; 1.37132; -0.00252632; -2.38812; 1.36627; 0.0955894; 0.0088462; -0.022348; 5.64583e-05
16.72; -2.3315; 1.37146; -0.00126316; -2.38812; 1.36627; 0.0952562; 0.00896735; -0.0201217; 2.54169e-05
16.736; -2.32998; 1.37161; 0.00252632; -2.38812; 1.36627; 0.0949408; 0.00932754; -0.0175422; -4.43173e-05
16.752; -2.32846; 1.37175; -0.00505263; -2.38812; 1.36627; 0.0947744; 0.00860892; -0.0146469; 7.4006e-05
16.768; -2.32695; 1.3719; 0.00378947; -2.38812; 1.36627; 0.094511; 0.00944588; -0.0114787; -4.34983e-05
16.784; -2.32544; 1.37204; -0.00378947; -2.38812; 1.36627; 0.0944505; 0.00872981; -0.00808436; 3.06356e-05
16.8; -2.32393; 1.37218; -0.00378947; -2.38812; 1.36627; 0.0943783; 0.00873008; -0.00451509; 1.71099e-05
16.816; -2.32242; 1.37232; -0.00126316; -2.38812; 1.36627; 0.0943427; 0.0089685; -0.000824998; 1.0421e-06
16.832; -2.32091; 1.37246; -0.00505263; -2.38812; 1.36627; 0.0944229; 0.00861069; 0.00292954; -1.4802e-05
16.848; -2.3194; 1.37261; 0.00252632; -2.38812; 1.36627; 0.0944615; 0.00932633; 0.00666272; 1.68322e-05
16.864; -2.31788; 1.37276; 0.00505263; -2.38812; 1.36627; 0.0945978; 0.00956575; 0.0100069; 5.05616e-05
16.88; -2.31637; 1.37292; 0.00378947; -2.38812; 1.36627; 0.0948242; 0.00944707; 0.0134051; 5.07986e-05
16.896; -2.31484; 1.37306; -0.00378947; -2.38812; 1.36627; 0.0951588; 0.00872713; 0.0166074; -6.29336e-05
16.912; -2.31332; 1.3732; -0.00252632; -2.38812; 1.36627; 0.0954698; 0.00884651; 0.0201311; -5.08576e-05
16.928; -2.31179; 1.37335; 0.00378947; -2.38812; 1.36627; 0.0957716; 0.00945066; 0.0224704; 8.51514e-05
16.944; -2.31025; 1.37349; -0.00378947; -2.38812; 1.36627; 0.0962388; 0.00872303; 0.0248987; -9.43536e-05
16.96; -2.3087; 1.37363; -0.00378947; -2.38812; 1.36627; 0.0966706; 0.0087214; 0.0269823; -0.000102249
16.976; -2.30715; 1.37377; -4.4539e-16; -2.38812; 1.36627; 0.097068; 0.00908766; 0.0269495; -1.2003e-17
16.992; -2.30559; 1.37391; -0.00252632; -2.38812; 1.36627; 0.0975153; 0.00884134; 0.0265414; -6.70522e-05
17.008; -2.30402; 1.37405; -0.00505263; -2.38812; 1.36627; 0.097949; 0.00859288; 0.0257307; -0.000130009
17.024; -2.30245; 1.3742; -4.44957e-16; -2.38812; 1.36627; 0.0982971; 0.00908766; 0.0245469; -1.09223e-17
17.04; -2.30087; 1.37435; 0.00631579; -2.38812; 1.36627; 0.0986058; 0.00971063; 0.023002; 0.000145278
17.056; -2.29928; 1.37451; 0.00757895; -2.38812; 1.36627; 0.0989314; 0.00983774; 0.0211245; 0.000160104
17.072; -2.2977; 1.37466; -4.4062e-16; -2.38812; 1.36627; 0.0993064; 0.00908766; 0.018951; -8.3502e-18
17.088; -2.2961; 1.37479; -0.00378947; -2.38812; 1.36627; 0.0996046; 0.00871028; 0.0165339; -6.26551e-05
17.104; -2.2945; 1.37492; -0.0101053; -2.38812; 1.36627; 0.0998796; 0.00807878; 0.0138735; -0.0001402
17.12; -2.2929; 1.37507; 0.00126316; -2.38812; 1.36627; 0.0999582; 0.00921393; 0.0110548; 1.3964e-05
17.136; -2.2913; 1.3752; -0.00884211; -2.38812; 1.36627; 0.100176; 0.00820223; 0.00810922; -7.17045e-05
17.152; -2.28682; 1.39406; -0.00252632; -2.28682; 1.39407; 0.100517; 0.0108742; 0.00508612; -1.28492e-05
17.168; -2.28522; 1.39425; 0.00631579; -2.28682; 1.39407; 0.100449; 0.0117628; 0.00203294; 1.28398e-05
17.184; -2.28361; 1.39443; -4.41487e-16; -2.28682; 1.39407; 0.100506; 0.0111281; -0.00100159; 4.42188e-19
17.2; -2.282; 1.39461; 0.00505263; -2.28682; 1.39407; 0.100385; 0.0116355; -0.00396997; -2.0059e-05
17.216; -2.2804; 1.3948; 0.00378947; -2.28682; 1.39407; 0.10029; 0.0115083; -0.00682626; -2.58681e-05
17.232; -2.27879; 1.39498; 0.00378947; -2.28682; 1.39407; 0.100138; 0.0115077; -0.00952655; -3.61008e-05
17.248; -2.2772; 1.39517; 0.00884211; -2.28682; 1.39407; 0.0998857; 0.0120118; -0.0120295; -0.000106369
17.264; -2.2756; 1.39536; 0.00505263; -2.28682; 1.39407; 0.0997018; 0.011632; -0.0142988; -7.22471e-05
17.28; -2.27401; 1.39554; 0.00126316; -2.28682; 1.39407; 0.0994843; 0.0112538; -0.0163; -2.05895e-05
17.296; -2.27242; 1.39572; -0.00126316; -2.28682; 1.39407; 0.0992244; 0.0110028; -0.0180042; 2.27422e-05
17.312; -2.27084; 1.39588; -0.00631579; -2.28682; 1.39407; 0.0989685; 0.0105033; -0.0193871; 0.000122446
17.328; -2.26926; 1.39606; 0.00126316; -2.28682; 1.39407; 0.0985592; 0.0112526; -0.0204309; -2.58074e-05
17.344; -2.26769; 1.39625; 0.00505263; -2.28682; 1.39407; 0.0981779; 0.0116243; -0.0211209; -0.000106717
17.36; -2.26612; 1.39642; -0.00378947; -2.28682; 1.39407; 0.0979336; 0.0107571; -0.0214505; 8.12867e-05
17.376; -2.26456; 1.39661; 0.00378947; -2.28682; 1.39407; 0.0975066; 0.0114977; -0.0214173; -8.11608e-05
17.392; -2.26301; 1.3968; 0.0113684; -2.28682; 1.39407; 0.0970803; 0.0122326; -0.0210241; -0.000239021
17.408; -2.26146; 1.39697; -0.00757895; -2.28682; 1.39407; 0.0969701; 0.0103935; -0.0202834; 0.00015373
17.424; -2.25991; 1.39715; 0.00505263; -2.28682; 1.39407; 0.0965237; 0.011616; -0.019208; -9.70516e-05
17.44; -2.25837; 1.39733; -0.00252632; -2.28682; 1.39407; 0.0963239; 0.0108848; -0.0178183; 4.50146e-05
17.456; -2.25684; 1.39752; 0.00631579; -2.28682; 1.39407; 0.0959657; 0.0117345; -0.0161391; -0.000101933
17.472; -2.2553; 1.39769; -0.00252632; -2.28682; 1.39407; 0.0960237; 0.0108856; -0.00262253; 6.62536e-06
17.488; -2.25376; 1.39786; -0.00505263; -2.28682; 1.39407; 0.0961739; 0.0106423; 0.00768462; -3.88279e-05
17.504; -2.25223; 1.39804; 0.00378947; -2.28682; 1.39407; 0.0957693; 0.0114911; -0.0191695; -7.26425e-05
17.52; -2.25068; 1.39823; 0.00505263; -2.28682; 1.39407; 0.0967611; 0.0116172; 0.0629009; 0.000317818
17.536; -2.24913; 1.39841; 0.00378947; -2.28682; 1.39407; 0.0971543; 0.0114964; 0.0236607; 8.96622e-05
17.552; -2.24757; 1.39859; -0.00252632; -2.28682; 1.39407; 0.0976263; 0.0108815; 0.0250845; -6.33715e-05
17.568; -2.246; 1.39877; 0.00126316; -2.28682; 1.39407; 0.0979568; 0.0112519; 0.0232763; 2.94017e-05
17.584; -2.24442; 1.39894; -0.00126316; -2.28682; 1.39407; 0.0983583; 0.0110039; 0.0233403; -2.94825e-05
17.6; -2.24284; 1.39911; -0.00631579; -2.28682; 1.39407; 0.0987815; 0.0105045; 0.023048; -0.000145569
17.616; -2.24126; 1.39929; -0.00126316; -2.28682; 1.39407; 0.0990869; 0.011003; 0.0224845; -2.84014e-05
17.632; -2.23967; 1.39947; 0.00126316; -2.28682; 1.39407; 0.0994036; 0.0112537; 0.0215545; 2.72268e-05
17.648; -2.23807; 1.39965; -4.2826e-16; -2.28682; 1.39407; 0.0997429; 0.0111281; 0.0203239; -8.7039e-18
17.664; -2.23647; 1.39982; -0.00252632; -2.28682; 1.39407; 0.100072; 0.0108754; 0.0188287; -4.75674e-05
17.68; -2.23487; 1.4; 0.00126316; -2.28682; 1.39407; 0.100304; 0.0112548; 0.0171204; 2.16258e-05
17.696; -2.23326; 1.40019; 0.00757895; -2.28682; 1.39407; 0.100474; 0.01189; 0.0151707; 0.00011498
17.712; -2.23165; 1.40037; 0.00126316; -2.28682; 1.39407; 0.100756; 0.0112554; 0.0130669; 1.65056e-05
17.728; -2.23003; 1.40055; -4.32597e-16; -2.28682; 1.39407; 0.100943; 0.0111281; 0.0108228; -4.68189e-18
17.744; -2.22841; 1.40073; 0.00252632; -2.28682; 1.39407; 0.10105; 0.0113835; 0.00847316; 2.14059e-05
17.76; -2.2268; 1.4009; -0.00252632; -2.28682; 1.39407; 0.101203; 0.0108725; 0.0060537; -1.52936e-05
17.776; -2.22518; 1.40109; 0.00505263; -2.28682; 1.39407; 0.101176; 0.0116395; 0.00360031; 1.81912e-05
17.792; -2.22356; 1.40126; -0.00252632; -2.28682; 1.39407; 0.101279; 0.0108723; 0.00114903; -2.90282e-06
17.808; -2.22194; 1.40145; 0.00378947; -2.28682; 1.39407; 0.101188; 0.0115117; -0.00126485; -4.79315e-06
17.824; -2.22032; 1.40163; 0.00252632; -2.28682; 1.39407; 0.101145; 0.0113837; -0.00360702; -9.11248e-06
17.84; -2.2187; 1.4018; -0.00757895; -2.28682; 1.39407; 0.101161; 0.0103617; -0.00584463; 4.4297e-05
17.856; -2.21708; 1.40198; 0.00126316; -2.28682; 1.39407; 0.100939; 0.0112556; -0.00794721; -1.00386e-05
17.872; -2.21547; 1.40214; -0.00884211; -2.28682; 1.39407; 0.100889; 0.0102365; -0.00988566; 8.74123e-05
17.888; -2.21386; 1.4023; -0.00884211; -2.28682; 1.39407; 0.100703; 0.0102381; -0.0116354; 0.000102884
17.904; -2.21225; 1.40248; -4.26742e-16; -2.28682; 1.39407; 0.100398; 0.0111281; -0.0131742; 5.62198e-18
17.92; -2.21065; 1.40266; -0.00252632; -2.28682; 1.39407; 0.100194; 0.010875; -0.0144823; 3.65868e-05
17.936; -2.20905; 1.40283; -0.00505263; -2.28682; 1.39407; 0.0999723; 0.0106232; -0.0155448; 7.8543e-05
17.952; -2.20746; 1.40301; 0.00505263; -2.28682; 1.39407; 0.0995982; 0.0116315; -0.0163509; -8.26158e-05
17.968; -2.20587; 1.40319; -0.00126316; -2.28682; 1.39407; 0.0993994; 0.0110026; -0.0168933; 2.1339e-05
17.984; -2.20428; 1.40337; -4.30428e-16; -2.28682; 1.39407; 0.0991108; 0.0111281; -0.0171664; 7.38892e-18
18; -2.2027; 1.40355; 0.00126316; -2.28682; 1.39407; 0.0988217; 0.011253; -0.0171824; -2.17041e-05
18.016; -2.20112; 1.40373; 0.00631579; -2.28682; 1.39407; 0.0984926; 0.0117504; -0.0169392; -0.000106986
18.032; -2.19955; 1.40392; 0.00252632; -2.28682; 1.39407; 0.0982733; 0.0113764; -0.0164439; -4.15427e-05
18.048; -2.19798; 1.40409; -0.00378947; -2.28682; 1.39407; 0.098092; 0.0107565; -0.0157001; 5.94955e-05
18.064; -2.19642; 1.40428; 0.00631579; -2.28682; 1.39407; 0.0977429; 0.0117457; -0.0147126; -9.29232e-05
18.08; -2.19486; 1.40445; -4.23273e-16; -2.28682; 1.39407; 0.0975995; 0.0111281; -0.0134747; 5.70349e-18
18.096; -2.1933; 1.40463; -0.00252632; -2.28682; 1.39407; 0.0974347; 0.010882; -0.0120345; 3.04031e-05
18.112; -2.19174; 1.4048; -0.00631579; -2.28682; 1.39407; 0.0973093; 0.0105138; -0.0103757; 6.55314e-05
18.128; -2.19019; 1.40498; 0.00378947; -2.28682; 1.39407; 0.0970616; 0.011496; -0.00852754; -3.2315e-05
18.144; -2.18863; 1.40515; -0.00505263; -2.28682; 1.39407; 0.0970553; 0.0106379; -0.00651338; 3.291e-05
18.16; -2.16023; 1.39444; -0.00126316; -2.16022; 1.39443; 0.0997235; 0.00987874; -0.00435936; 5.50657e-06
18.176; -2.15864; 1.3946; -0.00252632; -2.16022; 1.39443; 0.0997024; 0.00975285; -0.00209379; 5.28958e-06
18.192; -2.15704; 1.39476; 0.00126316; -2.16022; 1.39443; 0.0996688; 0.0101306; 0.000252629; 3.1911e-07
18.208; -2.15545; 1.39491; -0.00252632; -2.16022; 1.39443; 0.0997488; 0.00975273; 0.00264755; -6.68855e-06
18.224; -2.15385; 1.39507; -4.2414e-16; -2.16022; 1.39443; 0.0998048; 0.0100047; 0.00505738; -2.14504e-18
18.24; -2.15225; 1.39522; -0.00757895; -2.16022; 1.39443; 0.0999969; 0.0092471; 0.00744752; -5.64454e-05
18.256; -2.15065; 1.3954; 0.0126316; -2.16022; 1.39443; 0.0999462; 0.011268; 0.0097832; 0.000123584
18.272; -2.14905; 1.39555; -0.00505263; -2.16022; 1.39443; 0.100322; 0.00949793; 0.0120316; -6.07918e-05
18.288; -2.14744; 1.39571; -4.25875e-16; -2.16022; 1.39443; 0.1005; 0.0100047; 0.0141575; -6.02932e-18
18.304; -2.14583; 1.39587; -0.00252632; -2.16022; 1.39443; 0.100783; 0.00975012; 0.0161288; -4.07466e-05
18.32; -2.14421; 1.39603; -4.21971e-16; -2.16022; 1.39443; 0.101044; 0.0100047; 0.0179154; -7.55977e-18
18.336; -2.14259; 1.3962; 0.00378947; -2.16022; 1.39443; 0.101317; 0.0103887; 0.0194886; 7.38518e-05
18.352; -2.14096; 1.39636; -4.18502e-16; -2.16022; 1.39443; 0.101689; 0.0100047; 0.0208234; -8.71462e-18
18.368; -2.13933; 1.39653; 0.00505263; -2.16022; 1.39443; 0.101988; 0.0105201; 0.0218966; 0.000110636
18.384; -2.13769; 1.3967; 0.0101053; -2.16022; 1.39443; 0.102296; 0.011039; 0.022689; 0.000229286
18.4; -2.13605; 1.39686; -0.00378947; -2.16022; 1.39443; 0.102811; 0.00961517; 0.0231879; -8.78705e-05
18.416; -2.1344; 1.39702; -4.159e-16; -2.16022; 1.39443; 0.103148; 0.0100047; 0.0233794; -9.7235e-18
18.432; -2.13274; 1.39717; -0.00126316; -2.16022; 1.39443; 0.103532; 0.00987393; 0.0232572; -2.93775e-05
18.448; -2.13108; 1.39734; 0.00378947; -2.16022; 1.39443; 0.103846; 0.0103983; 0.0228186; 8.64709e-05
18.464; -2.12941; 1.39751; 0.00378947; -2.16022; 1.39443; 0.104199; 0.0103996; 0.0220658; 8.36184e-05
18.48; -2.12774; 1.39766; -0.00378947; -2.16022; 1.39443; 0.104611; 0.00960835; 0.021005; -7.95984e-05
18.496; -2.12606; 1.39784; 0.0101053; -2.16022; 1.39443; 0.104782; 0.0110641; 0.0196479; 0.000198554
